Folder: pyGAPS-v.4.4.0-python3.7-template/standard_data

Note: README.md
# pyGAPS-v.4.4.0-python3.7-template

File: H2_77K_3dspline_interpolation_example_data.csv
H2,Amount adsorbed [g/100g],,,77.347K,
atm,Carbosieve,atm,Norit,atm,Maxsorb
9.66E-06,0.000730012,9.66E-06,0.000385016,9.66E-06,0.000185308
1.10E-05,0.000826272,1.10E-05,0.000436827,1.10E-05,0.000210128
1.78E-05,0.001314754,1.78E-05,0.000699751,1.78E-05,0.000336082
2.75E-05,0.002011559,2.75E-05,0.001074804,2.75E-05,0.000515752
3.94E-05,0.002866403,3.94E-05,0.001534921,3.94E-05,0.000736172
5.34E-05,0.003872102,5.34E-05,0.002076235,5.34E-05,0.000995489
6.91E-05,0.004999921,6.91E-05,0.002683279,6.91E-05,0.001286295
8.66E-05,0.006257045,8.66E-05,0.003359921,8.66E-05,0.001610441
0.000106,0.007650656,0.000106,0.004110028,0.000106,0.001969781
0.000127,0.009159204,0.000127,0.004921998,0.000127,0.002358756
0.000149,0.0107396,0.000149,0.005772634,0.000149,0.002766255
0.000173,0.0124636,0.000173,0.0067006,0.000173,0.003210799
0.000198,0.0142595,0.000198,0.007667232,0.000198,0.003673865
0.000225,0.0161991,0.000225,0.008711194,0.000225,0.004173977
0.000253,0.0182105,0.000253,0.009793821,0.000253,0.004692611
0.000283,0.02036556,0.000283,0.0109538,0.000283,0.005248291
0.000313,0.0225206,0.000313,0.0121137,0.000313,0.00580397
0.000345,0.0248194,0.000345,0.013351,0.000345,0.006396695
0.000379,0.02726178,0.000379,0.0146656,0.000379,0.007026466
0.000414,0.029776,0.000414,0.0160189,0.000414,0.007674758
0.00045,0.0323621,0.00045,0.0174109,0.00045,0.008341574
0.000488,0.0350919,0.000488,0.0188802,0.000488,0.009045435
0.000527,0.0378935,0.000527,0.0203881,0.000527,0.009767818
0.000566,0.040695,0.000566,0.021896,0.000566,0.0104902
0.000658,0.0473039,0.000658,0.0254533,0.000658,0.0121943
0.00075,0.0539128,0.00075,0.0290105,0.00075,0.0138984
0.000851,0.0611682,0.000851,0.0329156,0.000851,0.0157692
0.00096,0.0689983,0.00096,0.0371302,0.00096,0.0177881
0.00108,0.07761855,0.00108,0.04177,0.00108,0.0200108
0.00121,0.08695718,0.00121,0.0467965,0.00121,0.0224188
0.00135,0.0970142,0.00135,0.0522096,0.00135,0.025012
0.0015,0.10779,0.0015,0.0580094,0.0015,0.0277904
0.00167,0.120002,0.00167,0.0645825,0.00167,0.0309392
0.00186,0.13365,0.00186,0.0719289,0.00186,0.0344585
0.00207,0.148736,0.00207,0.0800486,0.00207,0.0383483
0.0023,0.165258,0.0023,0.0889416,0.0023,0.0426085
0.00256,0.183935,0.00256,0.0989946,0.00256,0.0474244
0.00285,0.204768,0.00285,0.110208,0.00285,0.0527959
0.00318,0.228473,0.00318,0.122967,0.00318,0.0589084
0.00355,0.255053,0.00355,0.137273,0.00355,0.0657618
0.00397,0.285223,0.00397,0.153513,0.00397,0.0735413
0.00446,0.320423,0.00446,0.172459,0.00446,0.0826174
0.00501,0.359204,0.00501,0.193724,0.00501,0.0926874
0.00565,0.384601,0.00565,0.213668,0.00565,0.100784
0.00638,0.41357,0.00638,0.236239,0.00638,0.110019
0.00722,0.446903,0.00722,0.262211,0.00722,0.120645
0.00821,0.48619,0.00821,0.292821,0.00821,0.133169
0.00934,0.531032,0.00934,0.32776,0.00934,0.147464
0.0106,0.566232,0.0106,0.357467,0.0106,0.160663
0.0109,0.571145,0.0109,0.361192,0.0109,0.163152
0.0121,0.590796,0.0121,0.376093,0.0121,0.173111
0.0148,0.63501,0.0148,0.40962,0.0148,0.195517
0.0168,0.667761,0.0168,0.429688,0.0168,0.211894
0.019,0.703787,0.019,0.450838,0.019,0.229896
0.0243,0.77014,0.0243,0.497149,0.0243,0.270752
0.0301,0.820451,0.0301,0.533525,0.0301,0.30662
0.0338,0.851255,0.0338,0.555831,0.0338,0.328891
0.039,0.894548,0.039,0.58715,0.039,0.360537
0.0446,0.94117,0.0446,0.620782,0.0446,0.394443
0.05,0.975935,0.05,0.653193,0.05,0.422014
0.0604,1.02506,0.0604,0.689918,0.0604,0.466228
0.0701,1.07088,0.0701,0.723424,0.0701,0.507257
0.0802,1.11468,0.0802,0.758311,0.0802,0.541727
0.0902,1.15365,0.0902,0.792853,0.0902,0.573218
0.1,1.19169,0.1,0.826705,0.1,0.604094
0.119,1.25752,0.119,0.874436,0.119,0.664637
0.141,1.3129,0.141,0.928995,0.141,0.729394
0.162,1.36376,0.162,0.972861,0.162,0.781078
0.182,1.40807,0.182,1.0076,0.182,0.824637
0.202,1.44349,0.202,1.04213,0.202,0.870635
0.222,1.47892,0.222,1.07505,0.222,0.916014
0.243,1.5114,0.243,1.10961,0.243,0.956768
0.263,1.53888,0.263,1.13661,0.263,0.992695
0.283,1.56832,0.283,1.16141,0.283,1.02826
0.303,1.59625,0.303,1.18545,0.303,1.06655
0.323,1.61459,0.323,1.20671,0.323,1.09685
0.343,1.63293,0.343,1.22797,0.343,1.12697
0.361,1.65209,0.361,1.24532,0.361,1.15369
0.38,1.67437,0.38,1.26269,0.38,1.18148
0.4,1.69608,0.4,1.28077,0.4,1.21056
0.42,1.71025,0.42,1.297473,0.42,1.23575
0.44,1.72442,0.44,1.31414,0.44,1.26055
0.46,1.74061,0.46,1.3305,0.46,1.2865
0.48,1.75779,0.48,1.34644,0.48,1.31393
0.5,1.77451,0.5,1.36227,0.5,1.34124
0.52,1.78699,0.52,1.37408,0.52,1.36695
0.54,1.79939,0.54,1.38542,0.54,1.39255
0.56,1.8108,0.56,1.39835,0.56,1.41195
0.58,1.82142,0.58,1.41252,0.58,1.42652
0.6,1.83208,0.6,1.42623,0.6,1.4411
0.62,1.84304,0.62,1.43475,0.62,1.46462
0.64,1.85401,0.64,1.44309,0.64,1.49022
0.66,1.86439,0.66,1.45241,0.66,1.51297
0.68,1.87439,0.68,1.46338,0.68,1.53097
0.7,1.88445,0.7,1.4744,0.7,1.54896
0.72,1.89702,0.72,1.48666,0.72,1.56696
0.739,1.90918,0.739,1.49844,0.739,1.58405
0.76,1.92171,0.76,1.50855,0.76,1.60307
0.78,1.93268,0.78,1.51404,0.78,1.62136
0.801,1.9435,0.801,1.52031,0.801,1.64035
0.82,1.94861,0.82,1.53181,0.82,1.65388
0.841,1.95419,0.841,1.54483,0.841,1.66876
0.861,1.96084,0.861,1.55554,0.861,1.68506
0.882,1.96878,0.882,1.56514,0.882,1.70426
0.901,1.97711,0.901,1.57363,0.901,1.72115
0.921,1.98951,0.921,1.5803,0.921,1.73355
0.94,2.00129,0.94,1.58663,0.94,1.74533
0.958,2.00651,0.958,1.59335,0.958,1.75496
0.972,2.00792,0.972,1.59996,0.972,1.76107
0.981,2.00884,0.981,1.60422,0.981,1.76499
0.995,2.01025,0.995,1.61083,0.995,1.7711

File: H2_87K_example_data.csv
coordination on paint,,,,,,,,,,After convert,,,,,,
H2,"Amount adsorbed, cm3(STP)/g",,,,,,,,,H2,"Amount adsorbed, cm3(STP)/g",,,,,
log,pixel,,,,,,,,,,log,,,,,
Maxsorb,,Carbosieve,,Norit,,,,,,,Maxsorb,,Carbosieve,,Norit,
relative Pressure,cm3(STP)/g,relative Pressure,cm3(STP)/g,relative Pressure,cm3(STP)/g,,,y min,y max,,relative Pressure,cm3(STP)/g,relative Pressure,cm3(STP)/g,relative Pressure,cm3(STP)/g
254,581,276,561,320,570,,,0,1000,,1.28713E-06,0,1.86381E-06,40.0802,3.90806E-06,22.0441
292,580,316,554,346,566,,,581,82,,2.43968E-06,2.00401,3.65366E-06,54.1082,6.05304E-06,30.0601
313,578,358,546,361,563,,,,,,3.47379E-06,6.01202,7.40749E-06,70.1403,7.79104E-06,36.0721
337,577,400,535,401,559,,,,,,5.20235E-06,8.01603,1.50181E-05,92.1844,1.52729E-05,44.0882
362,575,443,521,444,552,,,x min,x max,,7.92326E-06,12.024,3.09646E-05,120.24,3.149E-05,58.1162
388,572,484,509,485,544,,log,1.00E-06,1,,1.2272E-05,18.0361,6.17304E-05,144.289,6.2778E-05,74.1483
415,570,526,497,527,534,,,239,1060,,1.93302E-05,22.0441,0.000125153,168.337,0.000127277,94.1884
440,568,566,483,567,522,,normal,0,1,,2.94402E-05,26.0521,0.00024534,196.393,0.000249504,118.236
488,560,608,473,609,512,,,,,,6.60286E-05,42.0842,0.000497406,216.433,0.000505847,138.277
513,554,634,465,621,508,,,,,,0.000100562,54.1082,0.000770413,232.465,0.000619038,146.293
535,548,662,461,664,499,,,,,,0.000145618,66.1323,0.001234105,240.481,0.001276346,164.329
559,542,677,457,703,490,,,,,,0.000218078,78.1563,0.001588453,248.497,0.002460292,182.365
583,553,702,453,746,482,,,,,,0.000326593,56.1122,0.002419237,256.513,0.005072681,198.397
608,523,731,447,786,474,,,,,,0.000497406,116.232,0.003941079,268.537,0.009944065,214.429
631,512,746,444,854,460,,,,,,0.000732485,138.277,0.005072681,274.549,0.0312262,242.485
655,498,789,437,882,452,,,,,,0.00109697,166.333,0.010459,288.577,0.0500204,258.517
679,485,815,433,896,450,,,,,,0.001642823,192.385,0.0161995,296.593,0.0633084,262.525
691,478,840,431,910,447,,,,,,0.002010429,206.413,0.024672,300.601,0.0801264,268.537
703,472,883,425,922,444,,,,,,0.002460292,218.437,0.0508693,312.625,0.0980559,274.549
718,463,905,424,947,438,,,,,,0.003166715,236.473,0.0736606,314.629,0.149341,286.573
731,454,922,421,964,434,,,,,,0.003941079,254.509,0.0980559,320.641,0.1988,294.589
760,437,946,420,976,433,,,,,,0.006420247,288.577,0.146849,322.645,0.243285,296.593
784,424,963,419,988,430,,,,,,0.009614963,314.629,0.195483,324.649,0.297723,302.605
814,408,987,415,,,,,,,,0.0159291,346.693,0.292755,332.665,,
842,393,,,,,,,,,,0.0255165,376.754,,,,
868,379,,,,,,,,,,0.0395215,404.81,,,,
896,358,,,,,,,,,,0.0633084,446.894,,,,
908,347,,,,,,,,,,0.0774746,468.938,,,,
922,332,,,,,,,,,,0.0980559,498.998,,,,
946,294,,,,,,,,,,0.146849,575.15,,,,
964,263,,,,,,,,,,0.1988,637.275,,,,
975,240,,,,,,,,,,0.239225,683.367,,,,
986,221,,,,,,,,,,0.28787,721.443,,,,
997,210,,,,,,,,,,0.346406,743.487,,,,
1005,204,,,,,,,,,,0.396325,755.511,,,,
,,,,,,,,,,,,,,,,
,,,,,,,,,,,,,,,,
,,,,,,,,,,,,,,,,
normal,pixel,,,,,,,,,,,,,,,
Maxsorb,,Carbosieve,,Norit,,,,,,,Maxsorb,,Carbosieve,,Norit,
relative Pressure,cm3(STP)/g,relative Pressure,cm3(STP)/g,relative Pressure,cm3(STP)/g,,,,,,relative Pressure,cm3(STP)/g,relative Pressure,cm3(STP)/g,relative Pressure,cm3(STP)/g
248,426,252,433,244,483,,,,,,0.0109622,310.621,0.0158343,296.593,0.006090134,196.393
254,410,258,431,248,474,,,,,,0.0182704,342.685,0.0231425,300.601,0.0109622,214.429
261,396,300,423,265,460,,,,,,0.02679659,370.741,0.0742996,316.633,0.0316687,242.485
274,378,341,421,282,452,,,,,,0.0426309,406.814,0.124239,320.641,0.0523752,258.517
292,359,383,419,292,450,,,,,,0.06455542,444.89,0.175396,324.649,0.06455542,262.525
305,347,423,418,306,446,,,,,,0.0803898,468.938,0.224117,326.653,0.0816078,270.541
320,330,465,417,320,443,,,,,,0.0986602,503.006,0.275274,328.657,0.0986602,276.553
362,295,506,416,362,438,,,,,,0.149817,573.146,0.325213,330.661,0.149817,286.573
404,263,548,415,404,434,,,,,,0.200974,637.275,0.37637,332.665,0.200974,294.589
444,239,588,414,444,432,,,,,,0.249695,685.371,0.425091,334.669,0.249695,298.597
486,220,630,413,486,430,,,,,,0.300853,723.447,0.476248,336.673,0.300853,302.605
524,208,671,413,527,428,,,,,,0.347138,747.495,0.526188,336.673,0.350792,306.613
569,202,710,412,569,426,,,,,,0.401949,759.519,0.573691,338.677,0.401949,310.621
609,199,751,412,609,424,,,,,,0.45067,765.531,0.62363,338.677,0.45067,314.629
649,194,793,411,651,422,,,,,,0.499391,775.551,0.674787,340.681,0.501827,318.637
692,193,835,410,691,420,,,,,,0.551766,777.555,0.725944,342.685,0.550548,322.645
732,189,875,409,731,419,,,,,,0.600487,785.571,0.774665,344.689,0.599269,324.649
772,186,915,407,771,416,,,,,,0.649208,791.583,0.823386,348.697,0.64799,330.661
814,185,958,407,814,413,,,,,,0.700365,793.587,0.875761,348.697,0.700365,336.673
854,183,998,407,854,410,,,,,,0.749086,797.595,0.924482,348.697,0.749086,342.685
894,181,,,896,408,,,,,,0.797808,801.603,,,0.800244,346.693
936,178,,,936,406,,,,,,0.848965,807.615,,,0.848965,350.701
979,174,,,976,405,,,,,,0.90134,815.631,,,0.897686,352.705
1017,171,,,1019,400,,,,,,0.947625,821.643,,,0.950061,362.725
1043,168,,,,,,,,,,0.979294,827.655,,,,

File: H2_298K_examples_data.csv
coordination on paint,,,,,,After convert,
H2,"Amount adsorbed, g/100g",,,,,H2,"Amount adsorbed, g/100g"
atm,Carbosieve,,,,,atm,Carbosieve
380,796,,origin,,,1.76101,0.029412
394,786,,366,806,,3.52201,0.058824
416,776,,,,,6.28931,0.088235
467,759,,max_x,max_y,,12.7044,0.138235
526,741,,1161,636,,20.1258,0.191176
574,724,,atm(max),g/100g(max),,26.1635,0.241176
674,700,,100,0.5,,38.7421,0.311765
773,680,,,,,51.195,0.370588
872,661,,,,,63.6478,0.426471
971,647,,,,,76.1006,0.467647
1070,631,,,,,88.5535,0.514706
,,,,,,,
,,,,,,,
atm,Maxsorb,,,,,atm,Maxsorb
1401,805,,origin,,,2.02381,0.020588
1417,801,,1384,812,,3.92857,0.032353
1438,794,,,,,6.42857,0.052941
1549,767,,max_x,max_y,,19.6429,0.132353
1597,758,,2224,642,,25.3571,0.158824
1711,733,,atm(max),g/100g(max),,38.9286,0.232353
1816,716,,100,0.5,,51.4286,0.282353
1921,698,,,,,63.9286,0.335294
2026,683,,,,,76.4286,0.379412
2128,670,,,,,88.5714,0.417647
,,,,,,,
,,,,,,,
atm,Norit,,,,,atm,Norit
2482,799,,origin,,,1.75659,0.017442
2501,793,,2468,805,,4.14053,0.034884
2521,786,,,,,6.64994,0.055233
2569,774,,max_x,max_y,,12.6725,0.090116
2617,762,,3265,633,,18.6951,0.125000
2668,751,,atm(max),g/100g(max),,25.0941,0.156977
2776,730,,100,0.5,,38.6449,0.218023
2875,715,,,,,51.0665,0.261628
2874,699,,,,,50.941,0.308140
3073,687,,,,,75.9097,0.343023

File: H2_example_data.csv
H2,Amount adsorbed [g/100g]
atm,Carbosieve,atm,Norit,atm,Maxsorb
0.000000,0.000000,0.0000000,0.000000,0.000000,0.000000
0.007861635,0.521390,0.0110063,0.374332,0.007861635,0.138146
0.0220126,0.753119,0.0235849,0.494652,0.0235849,0.267380
0.047170,0.962567,0.0503145,0.655080,0.047170,0.409982
0.0754717,1.09626,0.100629,0.828877,0.072327,0.516934
0.100629,1.1943,0.150943,0.953654,0.100629,0.606061
0.122642,1.27005,0.199686,1.03832,0.125786,0.686275
0.149371,1.33244,0.248428,1.11854,0.150943,0.757576
0.174528,1.39483,0.298742,1.18093,0.176101,0.811052
0.199686,1.43939,0.349057,1.2344,0.201258,0.868984
0.224843,1.48396,0.397799,1.27897,0.224843,0.922460
0.248428,1.51961,0.451258,1.32353,0.253145,0.975936
0.272013,1.5508,0.501572,1.36364,0.27673,1.01604
0.297170,1.59091,0.548742,1.39037,0.301887,1.06506
0.350629,1.63993,0.599057,1.42602,0.352201,1.140820
0.396226,1.6934,0.652516,1.44831,0.400943,1.21212
0.446541,1.72906,0.701258,1.47504,0.451258,1.274510
0.498428,1.77362,0.751572,1.50624,0.500000,1.34135
0.548742,1.80481,0.800314,1.51961,0.548742,1.40374
0.599057,1.83155,0.850629,1.5508,0.603774,1.443850
0.647799,1.85829,0.899371,1.57308,0.652516,1.50624
0.701258,1.88503,0.9528302,1.59091,0.751572,1.59537
0.750000,1.91622,1,1.61319,0.800314,1.63993
0.798742,1.94296,,,0.850629,1.67558
0.849057,1.95633,,,0.899371,1.72014
0.896226,1.97415,,,0.949686,1.75134
0.946541,2.00535,,,0.990566,1.76916
0.990566,2.0098