Folder: pyGAPS-v.4.4.0-python3.7-template/convert_PP0_to_alpha-s/alumina

Note: convert_PP0_to_alpha-s/alumina/alpha-Al2O3_N2_77K_reference_data.txt
# M. S. Mel'gunov et al., Adsorption (2019) 25:601-611.: https://doi.org/10.1007/s10450-019-00055-z
#
# BET surface areas (m2/g) for degassed at various temperatures
# T(deg): 100, 200, 300, 400, 500, 600, 700, 800, 900
# alpha-s(BET):4.7, 4.8, 4.8, 4.8, 5.1, 5.2, 5.1, 5.1, 5.1
# p/ps range: 0.14-0.30, 0.12-0.28, 0.10-0.28, 0.08-0.26, 0.07-0.26, 0.07-0.26, 0.06-0.26, 0.05-0.29, 0.05-0.29
#
# Adsorption of N2 (77.4 K) in cm3/g STP on hydrated alpha-Al2O3 degassed at various temperatures
# ln(p/(Ps-P)), Degas temperature (deg) 100, 200, 300, 400, 500, 600, 700, 800, 900, epsilon=sigma_x/(average(x)*sqet(n)) (%)
-12.0, 0.0942, 0.1230, 0.1523, 0.1867, 0.2360, 0.2740, 0.3271, 0.3534, 0.3791, 1.18
-11.5, 0.1129, 0.1465, 0.1787, 0.2138, 0.2631, 0.3013, 0.3522, 0.3790, 0.4111, 1.05
-11.0, 0.1346, 0.1711, 0.2065, 0.2429, 0.2921, 0.3296, 0.3785, 0.4055, 0.4426, 0.86
-10.5, 0.1589, 0.1995, 0.2389, 0.2774, 0.3265, 0.3626, 0.4088, 0.4359, 0.4740, 0.76
-10.0, 0.1866, 0.2320, 0.2749, 0.3154, 0.3641, 0.3987, 0.4424, 0.4695, 0.5084, 0.65
-9.5, 0.2180, 0.2682, 0.3150, 0.3577, 0.4063, 0.4389, 0.4797, 0.5063, 0.5500, 0.57
-9.0, 0.2533, 0.3089, 0.3586, 0.4035, 0.4524, 0.4825, 0.5203, 0.5463, 0.5879, 0.49
-8.5, 0.2923, 0.3530, 0.4044, 0.4518, 0.5012, 0.5287, 0.5637, 0.5891, 0.6292, 0.42
-8.0, 0.3345, 0.4002, 0.4512, 0.5015, 0.5511, 0.5764, 0.6087, 0.6338, 0.6733, 0.36
-7.5, 0.3793, 0.4493, 0.4978, 0.5510, 0.6011, 0.6248, 0.6551, 0.6795, 0.7184, 0.30
-7.0, 0.4235, 0.4967, 0.5429, 0.5994, 0.6503, 0.6735, 0.7018, 0.7253, 0.7617, 0.25
-6.5, 0.4690, 0.5393, 0.5817, 0.6358, 0.7001, 0.7224, 0.7492, 0.7718, 0.8021, 0.22
-6.0, 0.5119, 0.5843, 0.6246, 0.6752, 0.7488, 0.7716, 0.7977, 0.8193, 0.8479, 0.18
-5.5, 0.5524, 0.6270, 0.6688, 0.7224, 0.7975, 0.8211, 0.8465, 0.8677, 0.8930, 0.16
-5.0, 0.5948, 0.6698, 0.7139, 0.7699, 0.8475, 0.8723, 0.8964, 0.9167, 0.9395, 0.14
-4.5, 0.6405, 0.7113, 0.7649, 0.8264, 0.9061, 0.9276, 0.9472, 0.9641, 0.9882, 0.13
-4.0, 0.6953, 0.7636, 0.8137, 0.8791, 0.9601, 0.9762, 0.9971, 1.0145, 1.0333, 0.19
-3.5, 0.7553, 0.8197, 0.8672, 0.9328, 1.0161, 1.0321, 1.0497, 1.0643, 1.0811, 0.18
-3.0, 0.8295, 0.8882, 0.9312, 0.9933, 1.0783, 1.0950, 1.1074, 1.1181, 1.1326, 0.17
-2.5, 0.9237, 0.9740, 1.0113, 1.0644, 1.1525, 1.1682, 1.1743, 1.1807, 1.1935, 0.17
-2.0, 1.0450, 1.0859, 1.1157, 1.1572, 1.2469, 1.2615, 1.2606, 1.2620, 1.2744, 0.19
-1.5, 1.1988, 1.2321, 1.2549, 1.2838, 1.3753, 1.3891, 1.3816, 1.3788, 1.3925, 0.21
-1.2, 1.3052, 1.3376, 1.3571, 1.3798, 1.4743, 1.4888, 1.4797, 1.4750, 1.4896, 0.23
-1.0, 1.3821, 1.4137, 1.4326, 1.4530, 1.5503, 1.5681, 1.5578, 1.5523, 1.5691, 0.26
-0.8, 1.4649, 1.4951, 1.5132, 1.5288, 1.6353, 1.6513, 1.6441, 1.6422, 1.6586, 0.26
-0.6, 1.5516, 1.5836, 1.5969, 1.6110, 1.7252, 1.7429, 1.7393, 1.7388, 1.7569, 0.25
-0.4, 1.6414, 1.6738, 1.6864, 1.6974, 1.8221, 1.8406, 1.8390, 1.8404, 1.8605, 0.27
-0.2, 1.7325, 1.7679, 1.7795, 1.7865, 1.9221, 1.9433, 1.9436, 1.9470, 1.9694, 0.27
0.0, 1.8310, 1.87

Note: convert_PP0_to_alpha-s/alumina/Non-poeoua_alumina_N2_77K_reference_data.txt
# Standard data for the adsorption of nitrogen at 77 K on non-porous alumina
# J. Cejka et al., Phys. Chem. Chem. Phys., 2001, 3, 5076-5081.; DOI: 10.1039/b105603b
# The Aluminiumoxid C (denoted as DC, SBET=128.0[m2/g]) was obtained from Degussa. 
# The a-alumina (denoted as AA) was prepared by high temperature treatment (1200 C, 10 h) of 
# tablets prepared from pseudoboehmite (Pural SB from Condea Chemie, FRG); 
# this material has surface area SBET=6.77[m2/g].
# P/P0, Aluminiumoxid C (micro mol/m2), alpha-Alumina (micro mol/m2)
0.001, 4.642, 2.550
0.005, 6.264, 4.146
0.010, 7.096, 4.953
0.020, 8.039, 6.201
0.030, 8.648, 6.985
0.040, 9.108, 7.652
0.050, 9.481, 8.083
0.060, 9.797, 8.464
0.070, 10.073, 8.827
0.080, 10.318, 9.111
0.090, 10.539, 9.462
0.100, 10.741, 9.810
0.120, 11.091, 10.393
0.140, 11.442, 10.883
0.160, 11.793, 11.400
0.180, 12.144, 11.862
0.200, 12.495, 12.352
0.220, 12.846, 12.787
0.240, 13.198, 13.168
0.260, 13.549, 13.512
0.280, 13.900, 13.930
0.300, 14.251, 14.283
0.320, 14.602, 14.637
0.340, 14.953, 14.937
0.360, 15.304, 15.290
0.380, 15.655, 15.617
0.400, 16.006, 15.997
0.420, 16.357, 16.378
0.440, 16.708, 16.705
0.460, 17.174, 17.086
0.480, 17.513, 17.439
0.500, 17.864, 17.820
0.550, 18.805, 18.881
0.600, 19.859, 19.997
0.650, 21.068, 21.276
0.700, 22.493, 22.745
0.750, 24.233, 24.404
0.800, 26.465, 26.445
0.850, 29.540, 29.438
0.900, 34.330, 34.308
0.950, 44.063, 42.143

Note: README.md
# pyGAPS-v.4.4.0-python3.7-template

File: Alumina_N2_77K_convert_data.txt
# Standard N2 at -196 (deg) reduced adsorption isotherm for a-Al2O3-R material
# M. Jaroniec et al., Adsorption (2013) 19:475-481.: DOI 10.1007/s10450-012-9469-0
# Standard reduced adsorption obtained using the amount adsorbed, 1.2815 cm3(STP)/g at p/p0 of 0.4006;
# the specific surface area of a-Al2O3-R = 3.56 m2/g and the monolayer capacity = 0.8172 cm3(STP)/g
# obtained by the BET equation in the relative pressure range of 0.05-0.20
# V(alpha-s=1) = V(P/P0=0.4) = V04 = 1.2815 [cm3(STP)/g], S(BET) = 3.56 [m2/g]
# S(alpha-s)[m2/g] = slope[cm3(STP)/g] * 3.56/1.2815 = slope[cm3(STP)/g] * 2.777995
# P/P0, alpha-s
1.80E-06, 0.0108
4.12E-06, 0.0211
7.33E-06, 0.0307
1.14E-05, 0.0394
1.60E-05, 0.0474
2.35E-05, 0.0582
3.28E-05, 0.0688
4.42E-05, 0.0793
5.79E-05, 0.0897
7.41E-05, 0.0997
9.31E-05, 0.1096
1.15E-04, 0.1192
1.40E-04, 0.1286
1.69E-04, 0.1377
2.00E-04, 0.1466
2.35E-04, 0.1552
2.73E-04, 0.1635
3.15E-04, 0.1714
3.60E-04, 0.1792
4.40E-04, 0.1913
5.29E-04, 0.2024
6.23E-04, 0.2126
7.21E-04, 0.2218
8.17E-04, 0.2297
9.24E-04, 0.2376
1.04E-03, 0.2449
1.13E-03, 0.2506
1.24E-03, 0.2563
1.40E-03, 0.2645
1.57E-03, 0.272
1.73E-03, 0.2783
1.89E-03, 0.2841
2.20E-03, 0.294
2.52E-03, 0.303
3.30E-03, 0.3213
4.13E-03, 0.3366
4.99E-03, 0.3497
5.86E-03, 0.3609
6.74E-03, 0.3709
9.32E-03, 0.3949
0.0115, 0.4097
0.0154, 0.4311
0.019, 0.448
0.0207, 0.4549
0.0232, 0.4648
0.0242, 0.4691
0.0262, 0.4767
0.0278, 0.4812
0.0307, 0.4906
0.0397, 0.513
0.0498, 0.5365
0.0607, 0.5581
0.0808, 0.5932
0.1001, 0.6206
0.1211, 0.65
0.1399, 0.6765
0.16, 0.7048
0.1807, 0.7316
0.2007, 0.7566
0.2199, 0.7907
0.2405, 0.8144
0.2598, 0.8369
0.28, 0.8599
0.3002, 0.8811
0.32, 0.9044
0.3409, 0.9281
0.3596, 0.9509
0.38, 0.976
0.4006, 1
0.4199, 1.0241
0.4405, 1.0477
0.4605, 1.0709
0.4797, 1.0896
0.4998, 1.1157
0.5203, 1.1421
0.5396, 1.1668
0.5601, 1.1937
0.5801, 1.221
0.6007, 1.2499
0.6207, 1.2827
0.6409, 1.3111
0.6598, 1.3387
0.6799, 1.3756
0.7007, 1.4155
0.72, 1.4528
0.7398, 1.4943
0.7606, 1.5359
0.7805, 1.5848
0.8011, 1.629
0.8199, 1.6865
0.8397, 1.7715
0.8603, 1.861
0.8805, 1.9648
0.9003, 2.0866
0.9111, 2.1692
0.9208, 2.2528
0.9303, 2.3508
0.9401, 2.4741
0.9498, 2.6243
0.9553, 2.7333
0.9605, 2.8567
0.9657, 3.0054
0.9706, 3.1799
0.9757, 3.4131
0.9801, 3.701
0.9848, 4.1285
0.9894, 4.8213
0.9936, 6.0318