Folder: pyGAPS-v.4.4.0-python3.7-template/convert_PP0_to_alpha-s/carbon

Note: convert_PP0_to_alpha-s/carbon/memo.txt
CB = Carbon Black (NGCB = Non-Graphitized Carbon Black)
GCB = Graphitized Carbon Black

Q. How to convert from P/P0 to alpha-s plot ?
A. Linear approximation is performed between two points (convert_data.txt) near the actual P/P0. (Ref: [4])

Q. How to calculate "slope" in alpha-s plot ?
A. The "slope" in the alpha-s plot is obtained by connecting the origin and the valley between the two "swings" with a straight line. As an aside, in a carbon (slit) system using N2 gas, alpha-s = 0.5 corresponds to single-layer adsorption. (Ref: [4,5])

Q. What does the straight line connecting the origin and the value at alpha-s = 0.5 mean ? 
A. This straight line removes the adsorption promoting effect caused by the pores and represents the contribution of the adsorption process similar to that of a flat surface. (Ref: [3])

Q. Should I use CB (NGCB) or GCB ? 
A. Local crystallinity in the pores may be improved in samples treated with activated carbon at a high temperature of 1000 degrees or higher, so it is necessary to consider using GCB instead of CB. (Ref: [4])

Q. What are the characteristics of "Black Pearl (BP) 280" ? 
A. see https://www.fetc.com.tw/upload/files/BP_280.pdf
  other ref.: Datasheet-BLACK-PEARLS-280pdf.pdf
  ----------------------------------------------------
  PROPERTY: TYPICAL VALUES; TEST METHOD
  Iodine number (mg/g): 43 ;ASTM D-1510
  OAN (cc/100g): 121 ;ASTM D-2414
  Tint (%): 60 ;ASTM D-3265
  325 Mesh residue (PPM): <200 ;ASTM D-1514
  Moisture as packed (%); <1.0 ;ASTM D-1509
  Density (kg/m3): 365 ;ASTM D-1513
  The data in the table above are typical test values intended as guidance only; they are not product specifications. Product specifications are available upon request from your Cabot  representative.
  ----------------------------------------------------

Q. What are the characteristics of "Carbopack F" ? 
A. see http://carbon.org.ua/sorbent-selection-guide
  HydrophobU: GCB-A
  https://gcms.cz/labrulez-bucket-strapi-h3hsga3/application::paper.paper/t406044.pdf
  Relative Analyte Size: >C20
  Analyte size relative to n-Alkanes. Consider all atoms, not just Carbon. For example, even  though 1,2-Dichloroethane is a C2, the two Chlorine atoms give it a relative size between  C4 and C5.
  related ref.: https://www.jstage.jst.go.jp/article/jec1991/15/2/15_2_247/_pdf 
  https://www2.st.tokushima-u.ac.jp/News/st_Innovators-Tomorrow/Introd_J/CHEM/dataJ/horikawa_j.pdf

Q. How can I confirm that the pore diameter is reduced below 1.0 nm ?
A. Check that the F-swing is decreasing.

---------- Homogeneous surface ----------[6]
GCB(I): S(BET)=70.3 m2/g, Vulcan 3G = LGC 2102
---------- ---------- ---------- ---------- 
---------- Homogeneous surface ----------[6]
GCB(II): S(BET)=54.2 m2/g, #3845 (Tokai Carbon Co., Ltd.), Average particle size = 150 nm
  In the data of P / P0> = 0.85, hysteresis that seems to be capillary condensation in the interparticle voids can be confirmed, and the pore 

Note: README.md
# pyGAPS-v.4.4.0-python3.7-template

File: Cabot_BP280_Ar_77K_convert_data.txt
# nongraphitized carbon black (BP 280), Ar, 77 K
# V(alpha-s=1) = V(P/P0=0.4) = V0.4 = 15.65 [cm3(STP)/g], S(BET) = 36.6 [m2/g]
# S(alpha-s)[m2/g] = slope[cm3(STP)/g] * 36.6/15.65 = slope[cm3(STP)/g] * 2.338658
# L. Gardner et al., J. Phys. Chem. B 105 (2001).
# P/P0, alpha-s
9.66E-06, 6.54E-03
1.10E-05, 0.0131
1.78E-05, 0.0196
2.75E-05, 0.0262
3.94E-05, 0.0327
5.34E-05, 0.0393
6.91E-05, 0.0458
8.66E-05, 0.0524
1.06E-04, 0.0589
1.27E-04, 0.0654
1.49E-04, 0.0720
1.73E-04, 0.0785
1.98E-04, 0.0851
2.25E-04, 0.0916
2.53E-04, 0.0981
2.83E-04, 0.105
3.13E-04, 0.111
3.45E-04, 0.118
3.79E-04, 0.124
4.14E-04, 0.131
4.50E-04, 0.137
4.88E-04, 0.144
5.27E-04, 0.150
5.66E-04, 0.157
6.58E-04, 0.170
7.50E-04, 0.183
8.51E-04, 0.196
9.60E-04, 0.209
1.08E-03, 0.222
1.21E-03, 0.235
1.35E-03, 0.248
1.50E-03, 0.261
1.67E-03, 0.274
1.86E-03, 0.287
2.07E-03, 0.300
2.30E-03, 0.313
2.56E-03, 0.326
2.85E-03, 0.339
3.18E-03, 0.352
3.55E-03, 0.365
3.97E-03, 0.378
4.46E-03, 0.391
5.01E-03, 0.403
5.65E-03, 0.416
6.38E-03, 0.429
7.22E-03, 0.441
8.21E-03, 0.454
9.34E-03, 0.466
0.0106, 0.478
0.0109, 0.481
0.0121, 0.490
0.0148, 0.508
0.0168, 0.519
0.0190, 0.530
0.0243, 0.550
0.0301, 0.568
0.0338, 0.578
0.0390, 0.590
0.0446, 0.601
0.0500, 0.611
0.0604, 0.627
0.0701, 0.641
0.0802, 0.653
0.0902, 0.665
0.100, 0.676
0.119, 0.695
0.141, 0.716
0.162, 0.736
0.182, 0.755
0.202, 0.774
0.222, 0.794
0.243, 0.814
0.263, 0.835
0.283, 0.857
0.303, 0.879
0.323, 0.903
0.343, 0.927
0.361, 0.949
0.380, 0.974
0.400, 1.00
0.420, 1.03
0.440, 1.05
0.460, 1.08
0.480, 1.11
0.500, 1.13
0.520, 1.16
0.540, 1.18
0.560, 1.21
0.580, 1.24
0.600, 1.27
0.620, 1.29
0.640, 1.32
0.660, 1.35
0.680, 1.38
0.700, 1.41
0.720, 1.44
0.739, 1.48
0.760, 1.52
0.780, 1.55
0.801, 1.60
0.820, 1.64
0.841, 1.69
0.861, 1.74
0.882, 1.80
0.901, 1.86
0.921, 1.94
0.940, 2.01
0.958, 2.10
0.972, 2.17
0.981, 2.22
0.995, 2.27

File: Cabot_BP280_Ar_87K_convert_data.txt
# Argon Standard Reduced Adsorption Data for Cabot BP280 at 87 K
# (Amounts Adsorbed Were Divided by the Amount Adsorbed at a Relative Pressure of 0.4, i.e., 15.60 [cm3(STP)/g]
# V(alpha-s=1) = V(P/P0=0.4) = V0.4 = 15.60 [cm3(STP)/g], S(BET) = 35.9 [m2/g]
# S(alpha-s)[m2/g] = slope[cm3(STP)/g] * 35.9/15.60 = slope[cm3(STP)/g] * 2.301282
# nongraphitized carbon black (BP 280)
# L. Gardner et al., J. Phys. Chem. B, Vol. 105, No. 50, 2001.
# P/P0, alpha-s
6.38E-06, 6.56E-03
1.83E-05, 0.0131
3.53E-05, 0.0196
5.67E-05, 0.0262
8.16E-05, 0.0327
1.10E-04, 0.0391
1.41E-04, 0.0456
1.77E-04, 0.0521
2.14E-04, 0.0585
2.53E-04, 0.0650
2.95E-04, 0.0714
3.39E-04, 0.0778
3.85E-04, 0.0843
4.34E-04, 0.0907
4.85E-04, 0.0971
5.38E-04, 0.103
5.93E-04, 0.110
6.50E-04, 0.116
7.10E-04, 0.123
7.72E-04, 0.129
8.36E-04, 0.135
9.03E-04, 0.142
9.72E-04, 0.148
1.04E-03, 0.154
1.12E-03, 0.160
1.20E-03, 0.167
1.28E-03, 0.173
1.36E-03, 0.179
1.45E-03, 0.186
1.54E-03, 0.192
1.63E-03, 0.198
1.73E-03, 0.204
1.83E-03, 0.211
1.93E-03, 0.217
2.04E-03, 0.223
2.15E-03, 0.229
2.27E-03, 0.235
2.39E-03, 0.241
2.51E-03, 0.247
2.65E-03, 0.254
2.78E-03, 0.260
2.92E-03, 0.266
3.07E-03, 0.272
3.22E-03, 0.278
3.38E-03, 0.284
3.55E-03, 0.290
3.73E-03, 0.296
3.91E-03, 0.301
4.10E-03, 0.307
4.30E-03, 0.313
4.51E-03, 0.319
4.73E-03, 0.325
4.96E-03, 0.330
5.20E-03, 0.336
5.45E-03, 0.342
5.73E-03, 0.348
6.02E-03, 0.354
6.32E-03, 0.359
6.64E-03, 0.365
7.02E-03, 0.371
7.36E-03, 0.377
7.73E-03, 0.383
8.10E-03, 0.388
8.49E-03, 0.393
8.91E-03, 0.399
9.32E-03, 0.404
9.78E-03, 0.410
0.0102, 0.415
0.0111, 0.424
0.0126, 0.437
0.0151, 0.455
0.0175, 0.470
0.0200, 0.483
0.0252, 0.505
0.0299, 0.522
0.0349, 0.536
0.0400, 0.549
0.0451, 0.560
0.0501, 0.570
0.0581, 0.584
0.0701, 0.603
0.0801, 0.618
0.0900, 0.630
0.100, 0.643
0.119, 0.665
0.140, 0.687
0.160, 0.709
0.180, 0.730
0.200, 0.751
0.220, 0.773
0.240, 0.79
0.261, 0.818
0.281, 0.842
0.301, 0.867
0.321, 0.892
0.341, 0.919
0.361, 0.945
0.381, 0.972
0.401, 1.00
0.421, 1.03
0.441, 1.06
0.461, 1.09
0.480, 1.11
0.500, 1.14
0.520, 1.17
0.541, 1.20
0.561, 1.23
0.581, 1.27
0.601, 1.30
0.621, 1.34
0.641, 1.37
0.660, 1.41
0.680, 1.45
0.700, 1.49
0.720, 1.54
0.740, 1.59
0.760, 1.65
0.782, 1.72
0.799, 1.78
0.820, 1.87
0.840, 1.96
0.860, 2.07
0.879, 2.21
0.898, 2.39
0.910, 2.52
0.919, 2.65
0.927, 2.80
0.935, 2.97
0.947, 3.29
0.953, 3.50
0.963, 3.97
0.972, 4.68
0.982, 6.22
0.987, 7.73

File: Carbon_LMA10_Ar_87K_convert_data.txt
# LMA10, Ar, 87.3 K
# Standard data for the adsorption of Ar at 87.3 K on reference carbon LMA10.
# A. Silvestre-Albero et al., Carbon 66 (2014) 699.
# (i.e., n/nm -where nm is the monolayer capacity from which the BET surface area is determined- against P/P0)
# nm = 7.37e-5 [mol/g], V(alpha-s=1) = V(P/P0=0.4) = V0.4 = 2.68 [cm3(STP)/g]
# S(BET) = 6 [m2/g], C = 101, nm = 7e-5 [mol/g] by pyGASP code
# S [m2/g]= slope [cm3(STP)/g] * 6.00/2.68 = slope [cm3(STP)/g] * 2.238806
# P/P0, alpha-s, n/nm
9.8238E-06, 0.00165929, 0.00269599
2.0399E-05, 0.00712006, 0.01156855
5.0985E-05, 0.00859628, 0.01396708
7.0384E-05, 0.00884297, 0.01436789
8.3197E-05, 0.01350688, 0.02194573
9.6036E-05, 0.02008158, 0.03262818
0.00016047, 0.02387656, 0.03879419
0.00026554, 0.03687081, 0.05990700
0.00034209, 0.04637553, 0.07535009
0.00058726, 0.07750901, 0.125935
0.00123357, 0.157983, 0.256688
0.00160473, 0.188682, 0.306567
0.00308055, 0.267314, 0.434327
0.00574851, 0.354174, 0.575455
0.00831957, 0.40259, 0.654121
0.01070805, 0.430498, 0.699464
0.01214353, 0.442845, 0.719526
0.01370239, 0.456775, 0.742159
0.01570822, 0.471332, 0.765812
0.01802586, 0.480805, 0.781203
0.02064989, 0.492245, 0.799791
0.02359458, 0.501555, 0.814918
0.02891659, 0.510706, 0.829785
0.03122830, 0.51251, 0.832717
0.03493375, 0.51741, 0.840677
0.03908301, 0.527916, 0.857748
0.04290497, 0.535299, 0.869743
0.04941448, 0.539318, 0.876273
0.05720449, 0.553875, 0.899926
0.06438413, 0.559082, 0.908386
0.07039935, 0.569639, 0.925539
0.07635671, 0.576333, 0.936416
0.08245729, 0.582778, 0.946886
0.08618729, 0.586167, 0.952393
0.09723496, 0.60167, 0.977582
0.102132, 0.607602, 0.987221
0.11183, 0.618408, 1.00478
0.122663, 0.629527, 1.02284
0.134523, 0.644372, 1.04696
0.151208, 0.662574, 1.07654
0.162664, 0.681293, 1.10695
0.173323, 0.692746, 1.12556
0.186875, 0.715358, 1.1623
0.19277, 0.722343, 1.17365
0.206168, 0.73646, 1.19659
0.225373, 0.75984, 1.23457
0.236651, 0.772391, 1.25497
0.249169, 0.788659, 1.2814
0.261021, 0.808392, 1.31346
0.274562, 0.82231, 1.33607
0.286432, 0.831269, 1.35063
0.297486, 0.84835, 1.37838
0.308351, 0.86344, 1.4029
0.317066, 0.882692, 1.43418
0.328321, 0.900679, 1.46341
0.338333, 0.92132, 1.49694
0.348212, 0.927931, 1.50768
0.362664, 0.95114, 1.54539
0.370615, 0.960345, 1.56035
0.377557, 0.978393, 1.58967
0.388694, 0.991725, 1.61134
0.399217, 0.999974, 1.62474
0.411733, 1.01879, 1.65531
0.439434, 1.04866, 1.70384
0.481226, 1.1129, 1.80822
0.513109, 1.17033, 1.90154
0.554375, 1.26271, 2.05163
0.575071, 1.31612, 2.1384
0.615677, 1.40281, 2.27925
0.643906, 1.46719, 2.38386
0.667397, 1.53651, 2.4965
0.692191, 1.61325, 2.62118
0.710227, 1.6572, 2.69259
0.736366, 1.76174, 2.86244
0.761483, 1.86209, 3.02549
0.777782, 1.92495, 3.12763
0.839458, 2.24412, 3.6462
0.873348, 2.49298, 4.05054
0.894483, 2.70843, 4.4006
0.917358, 3.07514, 4.99643
0.931467, 3.41458, 5.54795
0.953174, 4.01491, 6.52335
0.957065, 4.18627, 6.80178
0.974662, 4.87102, 7.91435
0.983504, 5.72502, 9.30191
0.993939, 7.44402, 12.0949
0.994937, 7.89926, 12.8346

File: Carbon_LMA10_N2_77K_convert_data.txt
# LMA10, N2, 77.4 K
# Standard data for the adsorption of N2 at 77.4 K on reference carbon LMA10.
# A. Silvestre-Albero et al., Carbon 66 (2014) 699.
# (i.e., n/nm -where nm is the monolayer capacity from which the BET surface area is determined- against P/P0)
# nm = 9.15e-5 mol/g, V(alpha-s=1) = V(P/P0=0.4) = V04 = 3.26 cm3(STP)/g, S(BET) = 8.517 m2/g
# S [m2/g]= slope [cm3(STP)/g] * 8.517/3.26 = slope [cm3(STP)/g] * 2.61257
# https://www.mdpi.com/2227-9717/8/11/1359/htm
# P/P0, alpha-s, n/nm
1.3033E-06, 0.00918461, 0.01462327
4.0205E-06, 0.02096128, 0.03337347
8.7354E-06, 0.03088959, 0.04918080
1.3376E-05, 0.04315592, 0.06871062
3.8161E-05, 0.08388118, 0.133551
5.8282E-05, 0.107615, 0.171338
7.6355E-05, 0.123604, 0.196796
0.00010165, 0.140968, 0.224441
0.00013011, 0.16047, 0.255492
0.00016088, 0.17406, 0.277129
0.0002093, 0.198358, 0.315815
0.00025827, 0.212679, 0.338617
0.00032757, 0.236368, 0.376333
0.00038983, 0.247108, 0.393432
0.00041969, 0.257068, 0.409291
0.00047441, 0.265389, 0.422538
0.00058810, 0.284899, 0.453601
0.00089208, 0.321336, 0.511614
0.00127859, 0.350115, 0.557435
0.00245529, 0.40139, 0.639073
0.00379197, 0.435144, 0.692814
0.00677127, 0.476351, 0.758421
0.01014755, 0.501797, 0.798936
0.01809089, 0.534032, 0.850258
0.02638693, 0.556524, 0.886068
0.03883066, 0.571882, 0.910521
0.05441194, 0.591404, 0.941602
0.06865321, 0.61128, 0.973249
0.08783181, 0.635602, 1.01197
0.09916800, 0.651457, 1.03722
0.116229, 0.666011, 1.06039
0.129118, 0.681139, 1.08447
0.14211, 0.695758, 1.10775
0.157662, 0.713544, 1.13607
0.190421, 0.751216, 1.19605
0.21945, 0.786425, 1.2521
0.243756, 0.816271, 1.29962
0.267204, 0.842019, 1.34062
0.291653, 0.873561, 1.39084
0.315936, 0.896798, 1.42784
0.345345, 0.940181, 1.49691
0.375575, 0.96721, 1.53994
0.409409, 1.0054, 1.60074
0.428802, 1.02874, 1.6379
0.456985, 1.07454, 1.71083
0.470013, 1.09124, 1.73741
0.486214, 1.10684, 1.76226
0.52639, 1.16558, 1.85578
0.554765, 1.21062, 1.92748
0.582057, 1.2437, 1.98015
0.609231, 1.28549, 2.0467
0.628345, 1.32129, 2.10369
0.677174, 1.41015, 2.24517
0.69838, 1.45541, 2.31723
0.728771, 1.54354, 2.45754
0.752764, 1.57787, 2.5122
0.787916, 1.68521, 2.6831
0.809279, 1.78755, 2.84605
0.837782, 1.87793, 2.98994
0.862837, 1.99697, 3.17947
0.885325, 2.16804, 3.45184
0.912382, 2.4249, 3.8608
0.941298, 2.79074, 4.44328
0.961232, 3.43283, 5.46557
0.974836, 3.93158, 6.25965
0.986252, 4.92717, 7.84478
0.991124, 6.24052, 9.93584
0.994585, 6.87846, 10.9515

File: Carbopack_F_Ar_77K_convert_data.txt
# Carbopack F Graphitized Carbon Black, Ar, 77 K
# L. Gardner et al., J. Phys. Chem. B 105 (2001).
# V(alpha-s=1) = V(P/P0=0.4) = V0.4 = 3.173 [cm3(STP)/g], S(BET) = 5.88 [m2/g]
# S(alpha-s)[m2/g] = slope[cm3(STP)/g] * 5.88/3.173 = slope[cm3(STP)/g] * 1.853136
# graphitized carbon black (Carbopack F)
# P/P0, alpha-s
5.85E-05, 6.08E-03
1.16E-04, 0.0122
1.70E-04, 0.0184
2.19E-04, 0.0245
2.63E-04, 0.0307
3.04E-04, 0.0368
3.41E-04, 0.0430
3.75E-04, 0.0492
4.23E-04, 0.0590
4.66E-04, 0.0688
5.04E-04, 0.0787
5.39E-04, 0.0885
5.70E-04, 0.0984
5.98E-04, 0.108
6.30E-04, 0.118
6.54E-04, 0.128
6.77E-04, 0.138
6.98E-04, 0.148
7.19E-04, 0.158
7.39E-04, 0.168
7.58E-04, 0.177
7.77E-04, 0.187
7.96E-04, 0.197
8.14E-04, 0.207
8.33E-04, 0.217
8.52E-04, 0.227
8.72E-04, 0.237
8.92E-04, 0.247
9.12E-04, 0.257
9.34E-04, 0.267
9.56E-04, 0.276
9.81E-04, 0.286
1.01E-03, 0.296
1.04E-03, 0.306
1.07E-03, 0.316
1.10E-03, 0.326
1.14E-03, 0.336
1.18E-03, 0.345
1.23E-03, 0.355
1.29E-03, 0.365
1.35E-03, 0.375
1.42E-03, 0.384
1.51E-03, 0.394
1.62E-03, 0.404
1.75E-03, 0.413
1.91E-03, 0.423
2.11E-03, 0.432
2.37E-03, 0.441
2.69E-03, 0.45
3.11E-03, 0.459
3.65E-03, 0.467
4.32E-03, 0.475
5.16E-03, 0.482
6.19E-03, 0.489
7.57E-03, 0.496
9.22E-03, 0.503
0.0111, 0.508
0.0123, 0.511
0.0126, 0.512
0.0151, 0.517
0.0178, 0.522
0.0202, 0.526
0.0215, 0.528
0.0228, 0.530
0.0241, 0.532
0.0247, 0.533
0.0254, 0.534
0.0259, 0.535
0.0276, 0.537
0.0283, 0.538
0.0301, 0.541
0.0309, 0.542
0.0328, 0.546
0.0336, 0.547
0.0354, 0.550
0.0361, 0.551
0.0377, 0.554
0.0384, 0.556
0.0403, 0.559
0.0428, 0.563
0.0454, 0.567
0.0503, 0.572
0.0601, 0.579
0.0708, 0.585
0.0809, 0.589
0.091, 0.594
0.101, 0.598
0.111, 0.602
0.121, 0.605
0.131, 0.609
0.141, 0.613
0.151, 0.617
0.161, 0.621
0.171, 0.625
0.181, 0.629
0.191, 0.634
0.201, 0.639
0.211, 0.644
0.221, 0.649
0.231, 0.655
0.241, 0.661
0.251, 0.667
0.260, 0.674
0.270, 0.682
0.280, 0.690
0.289, 0.700
0.299, 0.711
0.308, 0.724
0.318, 0.738
0.327, 0.755
0.336, 0.776
0.349, 0.812
0.360, 0.852
0.371, 0.895
0.381, 0.936
0.390, 0.970
0.400, 1.00
0.410, 1.03
0.420, 1.05
0.430, 1.07
0.440, 1.09
0.450, 1.10
0.460, 1.12
0.470, 1.13
0.480, 1.14
0.490, 1.15
0.500, 1.17
0.510, 1.18
0.520, 1.19
0.530, 1.20
0.540, 1.21
0.550, 1.22
0.560, 1.24
0.570, 1.25
0.579, 1.26
0.590, 1.28
0.599, 1.30
0.610, 1.32
0.620, 1.34
0.630, 1.36
0.640, 1.39
0.650, 1.42
0.660, 1.44
0.670, 1.47
0.680, 1.50
0.690, 1.53
0.700, 1.55
0.710, 1.58
0.720, 1.60
0.728, 1.62
0.741, 1.64
0.750, 1.67
0.760, 1.69
0.770, 1.71
0.780, 1.73
0.790, 1.75
0.800, 1.77
0.810, 1.79
0.819, 1.82
0.829, 1.85
0.839, 1.88
0.848, 1.92
0.854, 1.96
0.859, 2.02
0.865, 2.11
0.872, 2.18
0.900, 2.34
0.930, 2.52
0.937, 2.59
0.947, 2.72
0.956, 2.93
0.970, 3.21
0.978, 3.39
0.985, 3.67
0.991, 3.94

File: Carbopack_F_Ar_87K_convert_data.txt
# Carbopack F Graphitized Carbon Black, Ar, 87 K
# L. Gardner et al., J. Phys. Chem. B 105 (2001).
# V(alpha-s=1) = V(P/P0=0.4) = V0.4 = 3.108 [cm3(STP)/g], S(BET) = 6.01 [m2/g]
# S(alpha-s)[m2/g] = slope[cm3(STP)/g] * 6.01/3.108 = slope[cm3(STP)/g] * 1.933719
# graphitized carbon black (Carbopack F)
# P/P0, alpha-s
1.28E-04, 9.17E-03
2.49E-04, 0.0184
3.54E-04, 0.0274
4.50E-04, 0.0364
5.38E-04, 0.0456
6.20E-04, 0.0548
6.95E-04, 0.0641
7.65E-04, 0.0735
8.30E-04, 0.0829
8.91E-04, 0.0924
9.49E-04, 0.102
1.00E-03, 0.111
1.06E-03, 0.121
1.11E-03, 0.131
1.16E-03, 0.140
1.20E-03, 0.150
1.25E-03, 0.160
1.30E-03, 0.169
1.34E-03, 0.179
1.39E-03, 0.188
1.43E-03, 0.198
1.48E-03, 0.208
1.52E-03, 0.217
1.57E-03, 0.227
1.62E-03, 0.237
1.67E-03, 0.246
1.72E-03, 0.256
1.77E-03, 0.265
1.83E-03, 0.275
1.89E-03, 0.284
1.96E-03, 0.294
2.03E-03, 0.303
2.10E-03, 0.312
2.18E-03, 0.322
2.27E-03, 0.331
2.36E-03, 0.340
2.47E-03, 0.349
2.58E-03, 0.358
2.71E-03, 0.366
2.86E-03, 0.375
3.02E-03, 0.383
3.19E-03, 0.391
3.39E-03, 0.399
3.62E-03, 0.406
3.86E-03, 0.414
4.13E-03, 0.420
4.44E-03, 0.427
4.81E-03, 0.434
5.23E-03, 0.441
5.69E-03, 0.447
6.20E-03, 0.452
6.75E-03, 0.458
7.55E-03, 0.465
8.13E-03, 0.469
8.75E-03, 0.473
9.40E-03, 0.477
0.0100, 0.480
0.0113, 0.486
0.0125, 0.491
0.0150, 0.498
0.0175, 0.505
0.0202, 0.511
0.0250, 0.518
0.0301, 0.525
0.0351, 0.531
0.0401, 0.536
0.0452, 0.541
0.0501, 0.545
0.0573, 0.551
0.0695, 0.56
0.0793, 0.567
0.0890, 0.573
0.0987, 0.580
0.117, 0.591
0.137, 0.602
0.156, 0.616
0.176, 0.633
0.195, 0.649
0.215, 0.671
0.235, 0.694
0.256, 0.719
0.276, 0.746
0.297, 0.778
0.317, 0.817
0.337, 0.861
0.360, 0.914
0.381, 0.959
0.400, 1.00
0.420, 1.04
0.440, 1.07
0.460, 1.10
0.480, 1.13
0.500, 1.15
0.520, 1.18
0.540, 1.21
0.560, 1.23
0.580, 1.26
0.600, 1.30
0.620, 1.34
0.640, 1.38
0.660, 1.44
0.680, 1.50
0.700, 1.57
0.720, 1.65
0.740, 1.72
0.760, 1.78
0.780, 1.84
0.800, 1.91
0.819, 1.98
0.840, 2.07
0.860, 2.17
0.879, 2.30
0.899, 2.45
0.919, 2.63
0.940, 2.90
0.954, 3.27
0.964, 3.63
0.975, 4.22
0.984, 5.09
0.988, 5.9

File: Carbopack_F_N2_77K_convert_data.txt
# Carbopack F Graphitized Carbon Black, N2, 77.4 K
# M. Kruk et al., Langmuir 15 (1999)1435-1441.
# BET specific surface area (m2/g): 6.2
# total pore volume (cm3/g): 0.02
# % graphite crystallinity: 95
# adsorption potential of monolayer formation (kJ/mol): 5.55
# adsorption potential of two-dimensional fluid-solid phase transition (kJ/mol): 3.12
# V(alpha-s=1) = V(P/P0=0.4) = V0.4 = 2.658 [cm3(STP)/g], S(BET) = 6.2 [m2/g]
# S(alpha-s)[m2/g] = slope[cm3(STP)/g] * 6.2/2.658 = slope[cm3(STP)/g] * 2.332581
# Graphitized_Carbon_Blacks
# P/P0, alpha-s
4.13E-06, 0.0041
9.01E-06, 0.0083
1.39E-05, 0.0124
1.87E-05, 0.0166
2.33E-05, 0.0207
2.78E-05, 0.0248
3.22E-05, 0.029
3.65E-05, 0.0332
4.07E-05, 0.0373
4.84E-05, 0.0453
5.58E-05, 0.0532
6.29E-05, 0.0612
6.96E-05, 0.0692
7.61E-05, 0.0772
8.24E-05, 0.0851
8.85E-05, 0.0931
9.44E-05, 0.101
1.00E-04, 0.109
1.06E-04, 0.117
1.11E-04, 0.125
1.17E-04, 0.133
1.22E-04, 0.141
1.28E-04, 0.149
1.33E-04, 0.157
1.39E-04, 0.165
1.46E-04, 0.173
1.52E-04, 0.181
1.57E-04, 0.189
1.63E-04, 0.197
1.69E-04, 0.205
1.75E-04, 0.213
1.82E-04, 0.221
1.88E-04, 0.229
1.95E-04, 0.237
2.02E-04, 0.245
2.09E-04, 0.253
2.17E-04, 0.261
2.25E-04, 0.269
2.34E-04, 0.276
2.43E-04, 0.284
2.53E-04, 0.292
2.63E-04, 0.299
2.74E-04, 0.307
2.86E-04, 0.315
3.00E-04, 0.323
3.15E-04, 0.331
3.31E-04, 0.339
3.50E-04, 0.347
3.71E-04, 0.354
3.94E-04, 0.362
4.21E-04, 0.369
4.49E-04, 0.377
4.82E-04, 0.385
5.22E-04, 0.392
5.67E-04, 0.4
6.20E-04, 0.407
6.82E-04, 0.414
7.54E-04, 0.422
8.85E-04, 0.432
1.05E-03, 0.442
1.26E-03, 0.451
1.53E-03, 0.46
1.90E-03, 0.469
2.34E-03, 0.477
2.88E-03, 0.484
3.51E-03, 0.491
4.22E-03, 0.497
5.01E-03, 0.502
5.85E-03, 0.507
6.73E-03, 0.511
7.67E-03, 0.519
8.09E-03, 0.528
8.72E-03, 0.535
9.50E-03, 0.54
0.0104, 0.544
0.0125, 0.549
0.015, 0.553
0.0176, 0.555
0.0201, 0.558
0.0253, 0.561
0.0301, 0.564
0.0402, 0.569
0.0501, 0.574
0.0604, 0.579
0.0702, 0.584
0.0804, 0.589
0.0903, 0.594
0.1, 0.599
0.12, 0.609
0.14, 0.621
0.16, 0.635
0.18, 0.653
0.2, 0.671
0.224, 0.703
0.249, 0.739
0.273, 0.782
0.297, 0.829
0.322, 0.878
0.351, 0.923
0.375, 0.967
0.4, 1
0.425, 1.03
0.45, 1.057
0.475, 1.082
0.5, 1.107
0.525, 1.133
0.55, 1.158
0.575, 1.186
0.6, 1.219
0.625, 1.254
0.65, 1.295
0.675, 1.341
0.7, 1.393
0.725, 1.449
0.75, 1.51
0.774, 1.574
0.799, 1.644
0.819, 1.708
0.839, 1.781
0.859, 1.867
0.878, 1.973
0.899, 2.12
0.911, 2.22
0.92, 2.32
0.929, 2.44
0.939, 2.6
0.948, 2.81
0.958, 3.12
0.967, 3.51
0.973, 3.98
0.985, 5.59

File: G25_N2_77K_reference_data.txt
# graphite (G25), N2, 77 K, data, t
# K. Miura et al., Adsorption (2007) 13: 139-147.: DOI 10.1007/s10450-007-9015-7
# Vm=V(theta=1) = 2.83 [cm3/g], C-value = 443, S = 12.30 [m2/g]
# V(alpha-s=1) = V(P/P0=0.4) = V0.4 = 4.858842 [cm3/g]
# S(alpha-s)[m2/g] = slope[cm3(STP)/g] * 12.30/4.858842 = slope[cm3(STP)/g] * 2.531467
# relative_pressure_X, V[cm3(STP)/g], theta, alpha-s, t[nm]
3.62E-04, 0.988, 0.3491, 0.203341, 0.1235814
6.03E-04, 1.5154, 0.5355, 0.311885, 0.189567
5.55E-03, 2.2464, 0.7938, 0.462332, 0.2810052
1.22E-02, 2.444, 0.8636, 0.503001, 0.3057144
1.92E-02, 2.5425, 0.8984, 0.523273, 0.3180336
3.36E-02, 2.6704, 0.9436, 0.549596, 0.3340344
4.46E-02, 2.7505, 0.9719, 0.566081, 0.3440526
6.11E-02, 2.8494, 1.0069, 0.586436, 0.3564426
7.65E-02, 2.9297, 1.0352, 0.602963, 0.3664608
9.16E-02, 3.0051, 1.0619, 0.6184807, 0.3759126
0.1166, 3.1288, 1.1056, 0.643939, 0.3913824
0.1416, 3.2518, 1.149, 0.669254, 0.406746
0.1575, 3.3304, 1.1768, 0.685431, 0.4165872
0.1724, 3.4102, 1.205, 0.701854, 0.42657
0.1919, 3.5225, 1.2447, 0.724967, 0.4406238
0.2117, 3.6377, 1.2854, 0.748676, 0.4550316
0.2317, 3.7586, 1.3281, 0.773559, 0.4701474
0.2601, 3.9457, 1.3942, 0.812066, 0.4935468
0.2899, 4.1469, 1.4653, 0.853475, 0.5187162
0.3113, 4.297, 1.5184, 0.884367, 0.5375136
0.3396, 4.4892, 1.5863, 0.923924, 0.5615502
0.3608, 4.6239, 1.6339, 0.951647, 0.5784006
0.3937, 4.8238, 1.7045, 0.992788, 0.603393
0.4154, 4.9445, 1.7472, 1.01763, 0.6185088
0.4398, 5.0869, 1.7975, 1.04694, 0.636315
0.465, 5.2277, 1.8472, 1.07591, 0.6539088
0.4902, 5.3756, 1.8995, 1.10635, 0.672423
0.5147, 5.5232, 1.9517, 1.13673, 0.6909018
0.5434, 5.7119, 2.0183, 1.17557, 0.7144782
0.5645, 5.8553, 2.069, 1.20508, 0.732426
0.589, 6.0276, 2.1299, 1.24054, 0.7539846
0.6136, 6.2164, 2.1966, 1.2794, 0.7775964
0.6441, 6.4859, 2.2918, 1.33487, 0.8112972
0.6706, 6.73, 2.3781, 1.3851, 0.8418474
0.6948, 6.9859, 2.4685, 1.43777, 0.873849
0.7195, 7.2768, 2.5713, 1.49764, 0.9102402
0.7437, 7.5814, 2.6789, 1.56033, 0.9483306
0.7674, 7.9316, 2.8027, 1.63241, 0.9921558
0.7914, 8.3288, 2.943, 1.71415, 1.041822
0.8142, 8.7784, 3.1019, 1.80669, 1.09807
0.8408, 9.4006, 3.3218, 1.93474, 1.17592
0.8611, 10.003, 3.5346, 2.05872, 1.25125
0.9045, 12.006, 4.2424, 2.47096, 1.50181
0.9384, 15.017, 5.3064, 3.09065, 1.87847
0.9551, 17.859, 6.3106, 3.67557, 2.23395

File: Graphite_Benzene_293K_convert_data.txt
# Absolute Values of Adsorption of Benzene on the Basal Face of Graphite at 20 (deg)
# The surface is determined from nitrogen at -195 (deg) by the BET method, using Omega_m = 16.2 A2; ps = 75.4 mm.
# A. A. Isirikyan et al., 65 (1961) 601.
# P/P0, alpha-s (micro mole/m2)
0.0005, 0.15
0.001, 0.27
0.002, 0.5
0.003, 0.71
0.004, 0.9
0.005, 1.09
0.006, 1.28
0.007, 1.45
0.008, 1.6
0.009, 1.74
0.01, 1.87
0.015, 2.4
0.02, 2.74
0.025, 3.02
0.03, 3.24
0.035, 3.4
0.04, 3.51
0.05, 3.71
0.06, 3.87
0.07, 4
0.08, 4.11
0.09, 4.19
0.1, 4.27
0.15, 4.61
0.2, 4.83
0.25, 5.06
0.3, 5.3
0.35, 5.56
0.4, 5.86
0.45, 6.25
0.5, 6.77
0.55, 7.35
0.6, 8.08
0.65, 8.88
0.7, 9.8
0.75, 10.8
0.8, 11.9
0.825, 12.5
0.85, 13.4
0.875, 14.4
0.9, 16.2
0.925, 20

# The Values of Differential Heat of Adsorption of Benzene at 20 (deg) for
# Various Coverages of the Basal Face of Graphite
# alpha-s (micro mole/m2), Qa (kcal/mole)
0.2, -10.3
0.6, 10.2
1, 10.22
1.4, 10.25
2, 10.28
2.6, 10.33
3.2, 10.38
3.6, 10.3
4, 10
4.4, 9.55
4.8, 9.05
5.2, 8.7
5.5, 8.5
6, 8.35
7, 8.3
8, 8.3
9, 8.3
10, 8.3

File: Graphite_N2_77K_convert_data.txt
# Absolute Values of Adsorption of Nitrogen on the Basal Face of Graphite at -195 (deg)
# The surface is defined according to BET at Omega_m = 16.2 A2 (see column 3 of Table I)
# A. A. Isirikyan et al., 65 (1961) 601.
# P/P0, alpha-s (micro mole/m2)
0.00003, 0.5
0.00005, 0.9
0.00008, 1.45
0.0001, 1.9
0.00013, 2.55
0.00017, 3.5
0.0002, 4.13
0.00023, 4.72
0.00027, 5.35
0.00031, 5.8
0.00037, 6.33
0.00043, 6.7
0.00051, 7.08
0.0006, 7.37
0.00075, 7.75
0.00095, 8.07
0.0013, 8.42
0.0024, 8.93
0.0037, 9.18
0.0055, 9.45
0.0075, 9.7
0.0095, 10
0.014, 10.35
0.025, 10.59
0.04, 10.72
0.06, 10.91
0.08, 11.05
0.1, 11.27
0.13, 11.6
0.16, 11.95
0.19, 12.46
0.22, 13.15
0.26, 14.36
0.3, 16
0.35, 17.6
0.4, 19
0.45, 20.2
0.5, 21.2
0.55, 22.2
0.6, 23.3
0.65, 24.7
0.7, 26.7
0.75, 29.2
0.8, 31.6
0.85, 34.5
0.9, 40
0.94, 47.5
0.96, 58
0.97, 66
0.98, 78

File: Graphite_n-Hexane_77K_convert_data.txt
# Absolute Values of Adsorption of n-Hexane on the Basal Face of Graphite at -195 (deg)
# The surface is defined according to BET at Omega_m = 16.2 A2
# A. A. Isirikyan et al., 65 (1961) 601.
# P/P0, alpha-s (micro mole/m2)
0.0001, 0.12
0.0002, 0.23
0.0004, 0.48
0.0006, 0.79
0.0008, 1.1
0.001, 1.38
0.0012, 1.62
0.0014, 1.82
0.0016, 1.97
0.0018, 2.1
0.0023, 2.31
0.0028, 2.43
0.0034, 2.54
0.004, 2.63
0.005, 2.73
0.01, 2.98
0.02, 3.17
0.03, 3.26
0.04, 3.33
0.06, 3.44
0.08, 3.52
0.1, 3.6
0.15, 3.77
0.2, 3.97
0.25, 4.21
0.3, 4.46
0.35, 4.79
0.4, 5.18
0.45, 5.61
0.5, 6.06
0.55, 6.58
0.6, 7
0.65, 7.51
0.7, 8.09
0.75, 8.77
0.8, 9.63
0.85, 11
0.9, 13.5

# Values <of Differential Heat of Adsorption of n-Hexane at 20 (deg) at
# Various Coverages of the Basal Face of Graphite
# The value in parentheses has been extrapolated
# alpha-s (micro mole/m2), Qa (kcal/mole)
0.1, -11.4
0.2, 11.35
0.4, 11.5
0.6, 11.7
1, 12.08
1.4, 12.4
1.8, 12.75
2.2, 13.03
2.4, 13.13
2.6, 13.8
2.8, 13.1
3, 12.7
3.2, 11.5
3.4, 10.1
3.6, 9
3.8, 8.15
4, 7.8
4.4, 7.8
4.8, 7.9
5.4, 8
6, 8.12
6.6, 8.14
7.2, 8
7.8, 7.8
8.4, 7.8
9.2, 7.8
10, 7.8