Folder: pyGAPS-v.4.4.0-python3.7-template/convert_PP0_to_alpha-s/carbon_additional_data

Note: convert_PP0_to_alpha-s/carbon_additional_data/convert_alpha-s_to_w.txt
# alpha-s, w/2 [nm], w [m]
0.00, 0.00, 0.0
0.02, 0.35, 0.7
0.05, 0.45, 0.9
0.20, 0.50, 1.0
0.50, 0.55, 1.1
0.55, 0.60, 1.2
0.57, 0.75, 1.5
0.63, 0.85, 1.7
0.74, 1.00, 2.0
0.79, 1.05, 2.1
0.85, 1.10, 2.2
0.95, 1.15, 2.3
1.00, 1.20, 2.4
1.05, 1.25, 2.5

Note: README.md
# pyGAPS-v.4.4.0-python3.7-template

File: Al-_Si-_Zr-_and_Fe-PILC1273K_N2_77K_convert_data.txt
# Standard Isotherm Data for Nitrogen Adsorption at 77 K on Al-, Si-, Zr- and Fe-PILC1273K Materials
# Jhonny Villarroel-Rocha et al./Adsorption Science & Technology Vol. 31 No. 2/3 2013
# Al-PILC1273K: SBET = 2.42 [m2/g], V(alpha-s=1) = V(P/P0=0.4) = V0.4 = 0.72 [cm3(STP)/g]
#   S(alpha-s)[m2/g] = slope[cm3(STP)/g] * 2.42/0.72 = slope[cm3(STP)/g] * 3.361111
#   [pyGAPS] BET surface area: a = 2 m2/g, The BET constant is: C = 6, Amount for a monolayer: n = 2e-05 mol/g
#      Amount for a monolayer: n = 2e-05 / (1/1000/22.414) = 2e-05 / 4.461e-5 = 0.44833 [cm3(STP)/g]
# Si-PILC1273K: SBET = 2.19 [m2/g], V(alpha-s=1) = V(P/P0=0.4) = V0.4 = 0.65 [cm3(STP)/g]
#   S(alpha-s)[m2/g] = slope[cm3(STP)/g] * 2.19/0.65 = slope[cm3(STP)/g] * 3.369231
#   [pyGAPS] BET surface area: a = 2 m2/g, The BET constant is: C = 5, Amount for a monolayer: n = 2e-05 mol/g
#      Amount for a monolayer: n = 2e-05 / (1/1000/22.414) = 2e-05 / 4.461e-5 = 0.44833 [cm3(STP)/g]
# Zr-PILC1273K: SBET = 4.29 [m2/g], V(alpha-s=1) = V(P/P0=0.4) = V0.4 = 1.48 [cm3(STP)/g]
#   S(alpha-s)[m2/g] = slope[cm3(STP)/g] * 4.29/1.48 = slope[cm3(STP)/g] * 2.898649
#   [pyGAPS] BET surface area: a = 4 m2/g, The BET constant is: C = 29, Amount for a monolayer: n = 4e-05 mol/g
#      Amount for a monolayer: n = 4e-05 / (1/1000/22.414) = 4e-05 / 4.461e-5 = 0.89666 [cm3(STP)/g]
# Fe-PILC1273K: SBET = 5.69 [m2/g], V(alpha-s=1) = V(P/P0=0.4) = V0.4 = 2.04 [cm3(STP)/g]
#   S(alpha-s)[m2/g] = slope[cm3(STP)/g] * 5.69/2.04 = slope[cm3(STP)/g] * 2.789216
#   [pyGAPS] BET surface area: a = 6 m2/g, The BET constant is: C = 40, Amount for a monolayer: n = 6e-05 mol/g
#      Amount for a monolayer: n = 6e-05 / (1/1000/22.414) = 6e-05 / 4.461e-5 = 1.34499 [cm3(STP)/g]
# pillared clays (PILCs)
# The reference materials were labelled according to their corresponding oligocation as Si-PILC1273K, Al-PILC1273K,Fe-PILC1273K and Zr-PILC1273K.
# P/P0, alpha-s(Al-PILC1273K), alpha-s(Si-PILC1273K), alpha-s(Zr-PILC1273K), alpha-s(Fe-PILC1273K)
0.0001, 0.019, 0.008, 0.062, 0.075
0.0002, 0.026, 0.014, 0.083, 0.099
0.0003, 0.031, 0.016, 0.096, 0.114
0.0004, 0.035, 0.018, 0.106, 0.126
0.0005, 0.038, 0.02, 0.115, 0.136
0.0006, 0.04, 0.022, 0.122, 0.144
0.0007, 0.043, 0.023, 0.128, 0.152
0.0008, 0.045, 0.024, 0.134, 0.158
0.0009, 0.047, 0.026, 0.139, 0.164
0.001, 0.049, 0.027, 0.144, 0.17
0.0012, 0.052, 0.029, 0.152, 0.179
0.0014, 0.055, 0.031, 0.16, 0.188
0.0016, 0.058, 0.032, 0.167, 0.196
0.0018, 0.06, 0.033, 0.173, 0.203
0.0021, 0.064, 0.035, 0.181, 0.212
0.0024, 0.067, 0.037, 0.188, 0.22
0.0027, 0.069, 0.039, 0.195, 0.228
0.003, 0.072, 0.04, 0.201, 0.235
0.0034, 0.075, 0.043, 0.208, 0.244
0.0038, 0.079, 0.045, 0.215, 0.252
0.0043, 0.083, 0.047, 0.223, 0.261
0.0048, 0.086, 0.05, 0.231, 0.269
0.0053, 0.09, 0.052, 0.237, 0.277
0.0058, 0.093, 0.054, 0.243, 0.284
0.0063, 0.096, 0.057, 0.249, 0.29
0.0071, 0.101, 0.06, 0.257, 0.3
0.0076, 0.103, 0.062, 0.262, 0.305
0.0084, 0.108, 0.066, 0.269, 0.313
0.0092, 0.112, 0.069, 0.276, 0.321
0.01, 0.116, 0.072, 0.282, 0.327
0.0125, 0.127, 0.081, 0.299, 0.345
0.015, 0.136, 0.089, 0.315, 0.359
0.0175, 0.144, 0.096, 0.327, 0.372
0.02, 0.151, 0.104, 0.338, 0.383
0.025, 0.165, 0.118, 0.356, 0.401
0.03, 0.179, 0.133, 0.373, 0.417
0.035, 0.192, 0.147, 0.387, 0.432
0.04, 0.204, 0.16, 0.401, 0.445
0.05, 0.228, 0.188, 0.425, 0.469
0.06, 0.252, 0.215, 0.448, 0.49
0.07, 0.275, 0.24, 0.47, 0.51
0.08, 0.296, 0.265, 0.489, 0.528
0.09, 0.318, 0.291, 0.508, 0.545
0.1, 0.339, 0.316, 0.527, 0.563
0.12, 0.385, 0.365, 0.561, 0.594
0.14, 0.43, 0.416, 0.595, 0.624
0.16, 0.472, 0.463, 0.628, 0.654
0.18, 0.515, 0.509, 0.661, 0.683
0.2, 0.558, 0.553, 0.692, 0.711
0.225, 0.611, 0.615, 0.732, 0.745
0.25, 0.665, 0.671, 0.771, 0.78
0.275, 0.72, 0.732, 0.812, 0.816
0.3, 0.775, 0.789, 0.852, 0.852
0.325, 0.83, 0.843, 0.887, 0.888
0.35, 0.886, 0.894, 0.926, 0.923
0.375, 0.942, 0.947, 0.962, 0.961
0.4, 1, 1, 1, 1
0.425, 1.059, 1.055, 1.038, 1.041
0.45, 1.12, 1.111, 1.079, 1.084
0.475, 1.183, 1.169, 1.122, 1.127
0.5, 1.245, 1.224, 1.162, 1.171
0.525, 1.306, 1.276, 1.207, 1.217
0.55, 1.367, 1.33, 1.25, 1.263
0.575, 1.43, 1.392, 1.296, 1.312
0.6, 1.496, 1.446, 1.339, 1.364
0.625, 1.568, 1.512, 1.391, 1.424
0.65, 1.647, 1.57, 1.447, 1.492
0.675, 1.722, 1.629, 1.503, 1.566
0.7, 1.794, 1.689, 1.555, 1.643
0.725, 1.877, 1.752, 1.613, 1.728
0.75, 1.964, 1.82, 1.685, 1.829
0.775, 2.052, 1.892, 1.769, 1.968
0.8, 2.136, 1.963, 1.867, 2.11
0.82, 2.207, 2.027, 1.955, 2.253
0.84, 2.307, 2.104, 2.071, 2.423
0.86, 2.418, 2.185, 2.23, 2.664
0.88, 2.545, 2.283, 2.434, 2.925
0.9, 2.706, 2.378, 2.741, 3.298
0.91, 2.807, 2.443, 2.954, 3.494
0.92, 2.925, 2.515, 3.207, 3.719
0.93, 3.064, 2.602, 3.532, 4.01
0.94, 3.223, 2.718, 3.975, 4.314
0.95, 3.42, 2.887, 4.59, 4.703
0.96, 3.655, 3.057, 5.435, 5.121
0.97, 3.975, 3.365, 6.631, 5.69

File: Cabot_BP280_Ar_77K_convert_data.txt
# nongraphitized carbon black (BP 280), Ar, 77 K, data, t
# V(alpha-s=1) = V(P/P0=0.4) = V0.4 = 15.65 [cm3(STP)/g], S(BET) = 36.6 [m2/g]
# S(alpha-s)[m2/g] = slope[cm3(STP)/g] * 36.6/15.65 = slope[cm3(STP)/g] * 2.338658
# [pyGAPS] BET surface area: a = 37 m2/g, The BET constant is: C = 229, Amount for a monolayer: n = 0.00044 mol/g
#   Amount for a monolayer: n = 0.00044 / (1/1000/22.414) = 0.00044 / 4.461e-5 = 9.86326 [cm3(STP)/g]
# L. Gardner et al., J. Phys. Chem. B 105 (2001).
# P/P0, alpha-s, V[cm3(STP)/g], t[nm]
0.00000966, 0.00654, 0.102351, 0.003486671
0.000011, 0.0131, 0.205015, 0.006984004
0.0000178, 0.0196, 0.30674, 0.0104493
0.0000275, 0.0262, 0.41003, 0.013968
0.0000394, 0.0327, 0.511755, 0.0174334
0.0000534, 0.0393, 0.615045, 0.020952
0.0000691, 0.0458, 0.71677, 0.0244174
0.0000866, 0.0524, 0.82006, 0.027936
0.000106, 0.0589, 0.921785, 0.03140136
0.000127, 0.0654, 1.02351, 0.0348667
0.000149, 0.072, 1.1268, 0.0383854
0.000173, 0.0785, 1.228525, 0.0418507
0.000198, 0.0851, 1.331815, 0.0453694
0.000225, 0.0916, 1.43354, 0.0488347
0.000253, 0.0981, 1.535265, 0.0523001
0.000283, 0.105, 1.64325, 0.0559787
0.000313, 0.111, 1.73715, 0.0591774
0.000345, 0.118, 1.8467, 0.0629093
0.000379, 0.124, 1.9406, 0.0661081
0.000414, 0.131, 2.05015, 0.06984
0.00045, 0.137, 2.14405, 0.0730388
0.000488, 0.144, 2.2536, 0.0767707
0.000527, 0.15, 2.3475, 0.0799695
0.000566, 0.157, 2.45705, 0.0837014
0.000658, 0.17, 2.6605, 0.0906321
0.00075, 0.183, 2.86395, 0.0975628
0.000851, 0.196, 3.0674, 0.104493
0.00096, 0.209, 3.27085, 0.111424
0.00108, 0.222, 3.4743, 0.118355
0.00121, 0.235, 3.67775, 0.125286
0.00135, 0.248, 3.8812, 0.132216
0.0015, 0.261, 4.08465, 0.139147
0.00167, 0.274, 4.2881, 0.146078
0.00186, 0.287, 4.49155, 0.153008
0.00207, 0.3, 4.695, 0.159939
0.0023, 0.313, 4.89845, 0.16687
0.00256, 0.326, 5.1019, 0.1738
0.00285, 0.339, 5.30535, 0.180731
0.00318, 0.352, 5.5088, 0.187662
0.00355, 0.365, 5.71225, 0.194592
0.00397, 0.378, 5.9157, 0.201523
0.00446, 0.391, 6.11915, 0.208454
0.00501, 0.403, 6.30695, 0.214851
0.00565, 0.416, 6.5104, 0.221782
0.00638, 0.429, 6.71385, 0.228713
0.00722, 0.441, 6.90165, 0.23511
0.00821, 0.454, 7.1051, 0.242041
0.00934, 0.466, 7.2929, 0.248439
0.0106, 0.478, 7.4807, 0.254836
0.0109, 0.481, 7.52765, 0.256436
0.0121, 0.49, 7.6685, 0.261234
0.0148, 0.508, 7.9502, 0.27083
0.0168, 0.519, 8.12235, 0.276694
0.019, 0.53, 8.2945, 0.282559
0.0243, 0.55, 8.6075, 0.293222
0.0301, 0.568, 8.8892, 0.302818
0.0338, 0.578, 9.0457, 0.308149
0.039, 0.59, 9.2335, 0.314547
0.0446, 0.601, 9.40565, 0.320411
0.05, 0.611, 9.56215, 0.325742
0.0604, 0.627, 9.81255, 0.334273
0.0701, 0.641, 10.03165, 0.341736
0.0802, 0.653, 10.21945, 0.348134
0.0902, 0.665, 10.40725, 0.354531
0.1, 0.676, 10.5794, 0.360396
0.119, 0.695, 10.87675, 0.370525
0.141, 0.716, 11.2054, 0.381721
0.162, 0.736, 11.5184, 0.392384
0.182, 0.755, 11.81575, 0.402513
0.202, 0.774, 12.1131, 0.412643
0.222, 0.794, 12.4261, 0.423305
0.243, 0.814, 12.7391, 0.433968
0.263, 0.835, 13.06775, 0.445164
0.283, 0.857, 13.41205, 0.456892
0.303, 0.879, 13.75635, 0.468621
0.323, 0.903, 14.13195, 0.481416
0.343, 0.927, 14.50755, 0.494212
0.361, 0.949, 14.85185, 0.50594
0.38, 0.974, 15.2431, 0.519269
0.4, 1, 15.65, 0.53313
0.42, 1.03, 16.1195, 0.549124
0.44, 1.05, 16.4325, 0.559787
0.46, 1.08, 16.902, 0.57578
0.48, 1.11, 17.3715, 0.591774
0.5, 1.13, 17.6845, 0.602437
0.52, 1.16, 18.154, 0.618431
0.54, 1.18, 18.467, 0.629093
0.56, 1.21, 18.9365, 0.645087
0.58, 1.24, 19.406, 0.661081
0.6, 1.27, 19.8755, 0.677075
0.62, 1.29, 20.1885, 0.687738
0.64, 1.32, 20.658, 0.703732
0.66, 1.35, 21.1275, 0.719726
0.68, 1.38, 21.597, 0.735719
0.7, 1.41, 22.0665, 0.751713
0.72, 1.44, 22.536, 0.767707
0.739, 1.48, 23.162, 0.789032
0.76, 1.52, 23.788, 0.810358
0.78, 1.55, 24.2575, 0.826352
0.801, 1.6, 25.04, 0.853008
0.82, 1.64, 25.666, 0.874333
0.841, 1.69, 26.4485, 0.90099
0.861, 1.74, 27.231, 0.927646
0.882, 1.8, 28.17, 0.959634
0.901, 1.86, 29.109, 0.991622
0.921, 1.94, 30.361, 1.03427
0.94, 2.01, 31.4565, 1.07159
0.958, 2.1, 32.865, 1.11957
0.972, 2.17, 33.9605, 1.15689
0.981, 2.22, 34.743, 1.18355
0.995, 2.27, 35.5255, 1.21021

File: Cabot_BP280_Ar_87K_convert_data.txt
# nongraphitized carbon black (BP 280), Ar, 87 K, data
# V(alpha-s=1) = V(P/P0=0.4) = V0.4 = 15.60 [cm3(STP)/g], S(BET) = 35.9 [m2/g]
# S(alpha-s)[m2/g] = slope[cm3(STP)/g] * 35.9/15.60 = slope[cm3(STP)/g] * 2.301282
# [pyGAPS] BET surface area: a = 36 m2/g, C = 138, Amount for a monolayer: n = 0.00043 mol/g
#   Amount for a monolayer: n = 0.00043 / (1/1000/22.414) = 0.00043 / 4.461e-5 = 9.63909 [cm3(STP)/g]
# L. Gardner et al., J. Phys. Chem. B 105 (2001).
# P/P0, alpha-s, V[cm3(STP)/g], t[nm]
0.00000638, 0.00656, 0.102336, 0.003567233
0.0000183, 0.0131, 0.20436, 0.00712359
0.0000353, 0.0196, 0.30576, 0.0106582
0.0000567, 0.0262, 0.40872, 0.0142472
0.0000816, 0.0327, 0.51012, 0.0177818
0.00011, 0.0391, 0.60996, 0.021262
0.000141, 0.0456, 0.71136, 0.02479662
0.000177, 0.0521, 0.81276, 0.0283312
0.000214, 0.0585, 0.9126, 0.0318115
0.000253, 0.065, 1.014, 0.0353461
0.000295, 0.0714, 1.11384, 0.0388263
0.000339, 0.0778, 1.21368, 0.0423065
0.000385, 0.0843, 1.31508, 0.04584112
0.000434, 0.0907, 1.41492, 0.0493213
0.000485, 0.0971, 1.51476, 0.0528016
0.000538, 0.103, 1.6068, 0.0560099
0.000593, 0.11, 1.716, 0.0598164
0.00065, 0.116, 1.8096, 0.0630791
0.00071, 0.123, 1.9188, 0.06688562
0.000772, 0.129, 2.0124, 0.0701483
0.000836, 0.135, 2.106, 0.073411
0.000903, 0.142, 2.2152, 0.0772175
0.000972, 0.148, 2.3088, 0.0804803
0.00104, 0.154, 2.4024, 0.083743
0.00112, 0.16, 2.496, 0.0870057
0.0012, 0.167, 2.6052, 0.0908122
0.00128, 0.173, 2.6988, 0.0940749
0.00136, 0.179, 2.7924, 0.0973376
0.00145, 0.186, 2.9016, 0.101144
0.00154, 0.192, 2.9952, 0.104407
0.00163, 0.198, 3.0888, 0.10767
0.00173, 0.204, 3.1824, 0.110932
0.00183, 0.211, 3.2916, 0.114739
0.00193, 0.217, 3.3852, 0.118001
0.00204, 0.223, 3.4788, 0.121264
0.00215, 0.229, 3.5724, 0.124527
0.00227, 0.235, 3.666, 0.12779
0.00239, 0.241, 3.7596, 0.131052
0.00251, 0.247, 3.8532, 0.134315
0.00265, 0.254, 3.9624, 0.138122
0.00278, 0.26, 4.056, 0.141384
0.00292, 0.266, 4.1496, 0.144647
0.00307, 0.272, 4.2432, 0.14791
0.00322, 0.278, 4.3368, 0.151172
0.00338, 0.284, 4.4304, 0.154435
0.00355, 0.29, 4.524, 0.157698
0.00373, 0.296, 4.6176, 0.160961
0.00391, 0.301, 4.6956, 0.163679
0.0041, 0.307, 4.7892, 0.166942
0.0043, 0.313, 4.8828, 0.170205
0.00451, 0.319, 4.9764, 0.173468
0.00473, 0.325, 5.07, 0.17673
0.00496, 0.33, 5.148, 0.179449
0.0052, 0.336, 5.2416, 0.182712
0.00545, 0.342, 5.3352, 0.185975
0.00573, 0.348, 5.4288, 0.189237
0.00602, 0.354, 5.5224, 0.1925
0.00632, 0.359, 5.6004, 0.195219
0.00664, 0.365, 5.694, 0.198482
0.00702, 0.371, 5.7876, 0.201744
0.00736, 0.377, 5.8812, 0.205007
0.00773, 0.383, 5.9748, 0.20827
0.0081, 0.388, 6.0528, 0.210989
0.00849, 0.393, 6.1308, 0.213708
0.00891, 0.399, 6.2244, 0.21697
0.00932, 0.404, 6.3024, 0.219689
0.00978, 0.41, 6.396, 0.222952
0.0102, 0.415, 6.474, 0.225671
0.0111, 0.424, 6.6144, 0.230565
0.0126, 0.437, 6.8172, 0.237634
0.0151, 0.455, 7.098, 0.247422
0.0175, 0.47, 7.332, 0.255579
0.02, 0.483, 7.5348, 0.262648
0.0252, 0.505, 7.878, 0.274612
0.0299, 0.522, 8.1432, 0.283856
0.0349, 0.536, 8.3616, 0.291469
0.04, 0.549, 8.5644, 0.298538
0.0451, 0.56, 8.736, 0.30452
0.0501, 0.57, 8.892, 0.309958
0.0581, 0.584, 9.1104, 0.317571
0.0701, 0.603, 9.4068, 0.327903
0.0801, 0.618, 9.6408, 0.336059
0.09, 0.63, 9.828, 0.342585
0.1, 0.643, 10.0308, 0.349654
0.119, 0.665, 10.374, 0.361617
0.14, 0.687, 10.7172, 0.373581
0.16, 0.709, 11.0604, 0.385544
0.18, 0.73, 11.388, 0.396963
0.2, 0.751, 11.7156, 0.408383
0.22, 0.773, 12.0588, 0.420346
0.24, 0.79, 12.324, 0.429591
0.261, 0.818, 12.7608, 0.444817
0.281, 0.842, 13.1352, 0.457867
0.301, 0.867, 13.5252, 0.471462
0.321, 0.892, 13.9152, 0.485057
0.341, 0.919, 14.3364, 0.499739
0.361, 0.945, 14.742, 0.513877
0.381, 0.972, 15.1632, 0.52856
0.401, 1, 15.6, 0.543786
0.421, 1.03, 16.068, 0.560099
0.441, 1.06, 16.536, 0.576413
0.461, 1.09, 17.004, 0.592726
0.48, 1.11, 17.316, 0.603602
0.5, 1.14, 17.784, 0.619915
0.52, 1.17, 18.252, 0.636229
0.541, 1.2, 18.72, 0.652543
0.561, 1.23, 19.188, 0.668856
0.581, 1.27, 19.812, 0.690608
0.601, 1.3, 20.28, 0.706921
0.621, 1.34, 20.904, 0.728673
0.641, 1.37, 21.372, 0.744986
0.66, 1.41, 21.996, 0.766738
0.68, 1.45, 22.62, 0.788489
0.7, 1.49, 23.244, 0.81024
0.72, 1.54, 24.024, 0.83743
0.74, 1.59, 24.804, 0.864619
0.76, 1.65, 25.74, 0.897246
0.782, 1.72, 26.832, 0.935311
0.799, 1.78, 27.768, 0.967938
0.82, 1.87, 29.172, 1.01688
0.84, 1.96, 30.576, 1.06582
0.86, 2.07, 32.292, 1.12564
0.879, 2.21, 34.476, 1.20177
0.898, 2.39, 37.284, 1.29965
0.91, 2.52, 39.312, 1.37034
0.919, 2.65, 41.34, 1.44103
0.927, 2.8, 43.68, 1.5226
0.935, 2.97, 46.332, 1.61504
0.947, 3.29, 51.324, 1.78905
0.953, 3.5, 54.6, 1.90325
0.963, 3.97, 61.932, 2.15883
0.972, 4.68, 73.008, 2.54492
0.982, 6.22, 97.032, 3.38235
0.987, 7.73, 120.588, 4.20346

File: Carbon_Black_N2_77K_convert_data.txt
# carbon black, N2, 77K
# K. Kaneko, TANSO 186 (1999) 50.
# S(alpha-s) [m2/g] = slope [mg/g] * 2.14 = slope [cm3(STP)/g] * (28.0134/22.4) * 2.14
# P/P0, alpha-s
0.000, 0.0000
1.3125e-6, 0.015439
3.9474e-6, 0.024490
6.5789e-6, 0.052706
1.1842e-5, 0.063886
1.8421e-5, 0.066015
2.3684e-5, 0.076130
2.7632e-5, 0.097958
3.9474e-5, 0.12458
5.3947e-5, 0.15333
7.1053e-5, 0.16184
9.0789e-5, 0.17249
0.000109, 0.17808
0.000129, 0.18580
0.000147, 0.19432
0.000272, 0.22679
0.000397, 0.24836
0.00053,  0.26246
0.000663, 0.28083
0.000796, 0.29334
0.000882, 0.31224
0.001022, 0.32289
0.0011605, 0.32928
0.0013224, 0.34019
0.0014566, 0.34738
0.0015789, 0.36415
0.0017303, 0.36628
0.0018671, 0.37293
0.0019908, 0.38145
0.0021303, 0.38491
0.0022447, 0.39929
0.0026697, 0.40461
0.0032105, 0.41552
0.0038553, 0.42564
0.0046039, 0.43842
0.0052684, 0.44614
0.0071526, 0.47808
0.0077776, 0.48686
0.0084724, 0.49112
0.0090855, 0.49591
0.0097816, 0.50603
0.010430, 0.50949
0.011214, 0.51348
0.011925, 0.51934
0.012595, 0.52120
0.014690, 0.53318
0.015640, 0.53504
0.016610, 0.53930
0.017970, 0.54436
0.019400, 0.55022
0.025580, 0.56193
0.039030, 0.58668
0.051530, 0.60053
0.064520, 0.62209
0.077410, 0.63699
0.10442, 0.67506
0.11729, 0.68863
0.13038, 0.69715
0.14344, 0.70700
0.17611, 0.73655
0.20851, 0.76583
0.24128, 0.79884
0.27417, 0.83983
0.30760, 0.88003
0.34003, 0.92075
0.37190, 0.95962
0.40487, 1.0070
0.43723, 1.049
0.46979, 1.091
0.50168, 1.129
0.53264, 1.164
0.56396, 1.2040
0.59577, 1.249
0.62784, 1.293
0.66037, 1.335
0.69028, 1.381
0.72379, 1.433
0.75556, 1.4880
0.78760, 1.5460
0.81962, 1.597
0.85141, 1.662
0.88309, 1.744
0.91277, 1.864
0.94835, 2.048
0.98216, 2.292
0.99423, 2.4330

File: Carbon_LMA10_Ar_87K_convert_data.txt
# LMA10, Ar, 87.3 K, data, t
# Standard data for the adsorption of Ar at 87.3 K on reference carbon LMA10.
# A. Silvestre-Albero et al., Carbon 66 (2014) 699.
# (i.e., n/nm -where nm is the monolayer capacity from which the BET surface area is determined- against P/P0)
# nm = 7.37e-5 [mol/g], V(alpha-s=1) = V(P/P0=0.4) = V0.4 = 2.68 [cm3(STP)/g]
# [pyGASP] S(BET) = 6 [m2/g], C = 101, nm = 7e-5 [mol/g]
#   Amount for a monolayer: n = 7.37e-5 / (1/1000/22.414) = 7.37e-5 / 4.461e-5 = 2.05111 [cm3(STP)/g]
# S [m2/g]= slope [cm3(STP)/g] * 6.00/2.68 = slope [cm3(STP)/g] * 2.238806
# P/P0, alpha-s, n/nm, V[cm3(STP)/g], t[nm]
9.82E-06, 0.00165929, 0.00269599, 0.004446897, 0.000728463
2.04E-05, 0.00712006, 0.01156855, 0.0190818, 0.003125855
5.10E-05, 0.00859628, 0.01396708, 0.02303803, 0.003773947
7.04E-05, 0.00884297, 0.01436789, 0.02369916, 0.003882249
8.32E-05, 0.01350688, 0.02194573, 0.0361984, 0.005929803
9.60E-05, 0.02008158, 0.03262818, 0.0538186, 0.008816233
0.00016047, 0.02387656, 0.03879419, 0.0639892, 0.0104823
0.00026554, 0.03687081, 0.059907, 0.0988138, 0.0161871
0.00034209, 0.04637553, 0.07535009, 0.124286, 0.0203598
0.00058726, 0.07750901, 0.125935, 0.207724, 0.0340281
0.00123357, 0.157983, 0.256688, 0.423394, 0.0693578
0.00160473, 0.188682, 0.306567, 0.505668, 0.0828354
0.00308055, 0.267314, 0.434327, 0.716402, 0.117357
0.00574851, 0.354174, 0.575455, 0.949186, 0.15549
0.00831957, 0.40259, 0.654121, 1.07894, 0.176745
0.01070805, 0.430498, 0.6994644, 1.15373, 0.188997
0.01214353, 0.442845, 0.719526, 1.18682, 0.194418
0.01370239, 0.456775, 0.742159, 1.22416, 0.200534
0.01570822, 0.471332, 0.765812, 1.26317, 0.206925
0.01802586, 0.480805, 0.781203, 1.28856, 0.211083
0.02064989, 0.492245, 0.799791, 1.31922, 0.216106
0.02359458, 0.501555, 0.814918, 1.34417, 0.220193
0.02891659, 0.510706, 0.829785, 1.36869, 0.22421
0.0312283, 0.51251, 0.832717, 1.37353, 0.225003
0.03493375, 0.51741, 0.840677, 1.38666, 0.227154
0.03908301, 0.527916, 0.857748, 1.41482, 0.231766
0.04290497, 0.535299, 0.869743, 1.4346, 0.235007
0.04941448, 0.539318, 0.876273, 1.44537, 0.236772
0.05720449, 0.553875, 0.899926, 1.48439, 0.243163
0.06438413, 0.559082, 0.908386, 1.49834, 0.245449
0.07039935, 0.569639, 0.925539, 1.52663, 0.250084
0.07635671, 0.576333, 0.936416, 1.54457, 0.253022
0.08245729, 0.582778, 0.946886, 1.56184, 0.255852
0.08618729, 0.586167, 0.952393, 1.57093, 0.257339
0.09723496, 0.60167, 0.977582, 1.61248, 0.264146
0.102132, 0.607602, 0.987221, 1.62837, 0.26675
0.11183, 0.618408, 1.00478, 1.65733, 0.271494
0.122663, 0.629527, 1.02284, 1.68713, 0.276376
0.134523, 0.644372, 1.04696, 1.72692, 0.282893
0.151208, 0.662574, 1.07654, 1.7757, 0.290884
0.162664, 0.681293, 1.10695, 1.82587, 0.299102
0.173323, 0.692746, 1.12556, 1.85656, 0.30413
0.186875, 0.715358, 1.1623, 1.91716, 0.314057
0.19277, 0.722343, 1.17365, 1.93588, 0.317123
0.206168, 0.73646, 1.19659, 1.97371, 0.323321
0.225373, 0.75984, 1.23457, 2.03637, 0.333586
0.236651, 0.772391, 1.25497, 2.07001, 0.339096
0.249169, 0.788659, 1.2814, 2.11361, 0.346238
0.261021, 0.808392, 1.31346, 2.16649, 0.354901
0.2745616, 0.82231, 1.33607, 2.20379, 0.361011
0.286432, 0.831269, 1.35063, 2.2278, 0.364944
0.297486, 0.84835, 1.37838, 2.27358, 0.372443
0.308351, 0.86344, 1.4029, 2.31402, 0.379068
0.317066, 0.882692, 1.43418, 2.36561, 0.38752
0.328321, 0.900679, 1.46341, 2.41382, 0.395417
0.338333, 0.9213198, 1.49694, 2.46914, 0.404479
0.348212, 0.927931, 1.50768, 2.48685, 0.407381
0.362664, 0.95114, 1.54539, 2.54905, 0.41757
0.370615, 0.960345, 1.56035, 2.57372, 0.421611
0.377557, 0.978393, 1.58967, 2.62209, 0.429535
0.388694, 0.991725, 1.61134, 2.65782, 0.435388
0.399217, 0.999974, 1.62474, 2.67993, 0.43901
0.411733, 1.01879, 1.65531, 2.73035, 0.447269
0.439434, 1.04866, 1.70384, 2.81041, 0.460384
0.481226, 1.1129, 1.80822, 2.98257, 0.488586
0.5131092, 1.17033, 1.90154, 3.1365, 0.513801
0.5543749, 1.26271, 2.05163, 3.38407, 0.554357
0.575071, 1.31612, 2.1384, 3.52719, 0.577802
0.615677, 1.40281, 2.27925, 3.75952, 0.615861
0.643906, 1.46719, 2.38386, 3.93207, 0.644126
0.667397, 1.53651, 2.4965, 4.11786, 0.674561
0.692191, 1.61325, 2.62118, 4.32351, 0.70825
0.710227, 1.6572, 2.69259, 4.44131, 0.727547
0.736366, 1.76174, 2.86244, 4.72145, 0.773439
0.761483, 1.86209, 3.02549, 4.99041, 0.817498
0.777782, 1.92495, 3.12763, 5.15888, 0.845095
0.839458, 2.24412, 3.6462, 6.01424, 0.985215
0.873348, 2.49298, 4.05054, 6.68118, 1.09447
0.894483, 2.70843, 4.4006, 7.25859, 1.18906
0.917358, 3.07514, 4.99643, 8.24138, 1.35005
0.931467, 3.41458, 5.54795, 9.15107, 1.49907
0.953174, 4.01491, 6.52335, 10.76, 1.76263
0.957065, 4.18627, 6.80178, 11.2192, 1.83786
0.974662, 4.87102, 7.91435, 13.0543, 2.13848
0.983504, 5.72502, 9.30191, 15.3431, 2.5134
0.993939, 7.44402, 12.0949, 19.95, 3.26808
0.994937, 7.89926, 12.8346, 21.17, 3.46794

File: Carbon_LMA10_N2_77K_convert_data.txt
# LMA10, N2, 77.4 K, data, t
# Standard data for the adsorption of N2 at 77.4 K on reference carbon LMA10.
# A. Silvestre-Albero et al., Carbon 66 (2014) 699.
# (i.e., n/nm -where nm is the monolayer capacity from which the BET surface area is determined- against P/P0)
# nm = 9.15e-5 mol/g, V(alpha-s=1) = V(P/P0=0.4) = V04 = 3.26 cm3(STP)/g, S(BET) = 8.517 m2/g
# S [m2/g]= slope [cm3(STP)/g] * 8.517/3.26 = slope [cm3(STP)/g] * 2.61257
#   Amount for a monolayer: n = 9.15e-5 / (1/1000/22.414) = 9.15e-5 / 4.461e-5 = 1.6521 [cm3(STP)/g]
# https://www.mdpi.com/2227-9717/8/11/1359/htm
# P/P0, alpha-s, n/nm, V[cm3(STP)/g], t[nm]
1.30E-06, 0.00918461, 0.01462327, 0.0299418, 0.006415734
4.02E-06, 0.02096128, 0.03337347, 0.0683338, 0.0146421
8.74E-06, 0.03088959, 0.0491808, 0.1007, 0.0215773
1.34E-05, 0.04315592, 0.06871062, 0.140688, 0.0301457
3.82E-05, 0.08388118, 0.133551, 0.273453, 0.0585936
5.83E-05, 0.107615, 0.171338, 0.350824, 0.0751721
7.64E-05, 0.123604, 0.196796, 0.402948, 0.0863411
0.00010165, 0.140968, 0.224441, 0.459554, 0.0984702
0.00013011, 0.16047, 0.255492, 0.523132, 0.112093
0.00016088, 0.17406, 0.277129, 0.567435, 0.121586
0.0002093, 0.198358, 0.315815, 0.646647, 0.138559
0.00025827, 0.212679, 0.338617, 0.693335, 0.148563
0.00032757, 0.236368, 0.376333, 0.77056, 0.16511
0.00038983, 0.2471075, 0.393432, 0.80557, 0.172612
0.00041969, 0.257068, 0.409291, 0.838043, 0.17957
0.00047441, 0.265389, 0.422538, 0.865167, 0.185382
0.0005881, 0.284899, 0.453601, 0.92877, 0.199011
0.00089208, 0.321336, 0.511614, 1.04755, 0.224463
0.00127859, 0.350115, 0.557435, 1.14137, 0.244566
0.00245529, 0.40139, 0.639073, 1.30853, 0.280384
0.00379197, 0.435144, 0.692814, 1.41857, 0.3039618
0.00677127, 0.476351, 0.758421, 1.5529, 0.332746
0.01014755, 0.501797, 0.798936, 1.63586, 0.350521
0.01809089, 0.534032, 0.850258, 1.74094, 0.373038
0.02638693, 0.556524, 0.8860681, 1.81427, 0.388749
0.03883066, 0.571882, 0.910521, 1.86434, 0.399477
0.05441194, 0.5914037, 0.941602, 1.92798, 0.413114
0.06865321, 0.61128, 0.973249, 1.99277, 0.426998
0.08783181, 0.635602, 1.01197, 2.07206, 0.443987
0.099168, 0.651457, 1.03722, 2.12375, 0.455063
0.116229, 0.666011, 1.06039, 2.1712, 0.465229
0.129118, 0.681139, 1.08447, 2.22051, 0.475796
0.14211, 0.695758, 1.10775, 2.26817, 0.486008
0.157662, 0.713544, 1.13607, 2.32615, 0.498433
0.190421, 0.751216, 1.19605, 2.44897, 0.524748
0.21945, 0.786425, 1.2521, 2.56375, 0.549342
0.243756, 0.8162713, 1.29962, 2.66104, 0.570191
0.267204, 0.842019, 1.34062, 2.74498, 0.588176
0.291653, 0.873561, 1.39084, 2.84781, 0.61021
0.315936, 0.896798, 1.42784, 2.92356, 0.626441
0.345345, 0.940181, 1.49691, 3.06499, 0.656746
0.375575, 0.9672096, 1.53994, 3.1531, 0.675626
0.409409, 1.0054, 1.60074, 3.27759, 0.702301
0.428802, 1.02874, 1.6379, 3.35368, 0.718605
0.456985, 1.07454, 1.71083, 3.503, 0.7506
0.470013, 1.09124, 1.73741, 3.55743, 0.762263
0.486214, 1.10684, 1.76226, 3.60831, 0.773164
0.52639, 1.16558, 1.85578, 3.79979, 0.814194
0.554765, 1.21062, 1.92748, 3.94661, 0.845653
0.582057, 1.2437, 1.98015, 4.05446, 0.868762
0.609231, 1.28549, 2.0467, 4.19071, 0.897958
0.628345, 1.32129, 2.10369, 4.3074, 0.922961
0.677174, 1.41015, 2.24517, 4.5971, 0.985035
0.69838, 1.45541, 2.31723, 4.74465, 1.01665
0.728771, 1.54354, 2.45754, 5.03194, 1.07821
0.752764, 1.57787, 2.5122, 5.14385, 1.10219
0.787916, 1.68521, 2.6831, 5.49378, 1.17717
0.809279, 1.78755, 2.84605, 5.82743, 1.24866
0.837782, 1.87793, 2.98994, 6.12204, 1.31179
0.862837, 1.99697, 3.17947, 6.51012, 1.39494
0.885325, 2.16804, 3.45184, 7.06782, 1.51444
0.912382, 2.4249, 3.8608, 7.90518, 1.69387
0.941298, 2.79074, 4.44328, 9.09782, 1.94942
0.961232, 3.43283, 5.46557, 11.191, 2.39793
0.974836, 3.93158, 6.25965, 12.8169, 2.74633
0.986252, 4.92717, 7.84478, 16.0626, 3.44178
0.991124, 6.24052, 9.93584, 20.3441, 4.3592
0.994585, 6.87846, 10.9515, 22.4238, 4.80482