Folder: pyGAPS-v.4.4.0-python3.7-template/convert_PP0_to_alpha-s/carbon_additional_data (part 2)

File: Carbopack_F_Ar_77K_convert_data.txt
# Carbopack F Graphitized Carbon Black, Ar, 77 K, data
# L. Gardner et al., J. Phys. Chem. B 105 (2001).
# V(alpha-s=1) = V(P/P0=0.4) = V0.4 = 3.173 [cm3(STP)/g], S(BET) = 5.88 [m2/g]
# S(alpha-s)[m2/g] = slope[cm3(STP)/g] * 5.88/3.173 = slope[cm3(STP)/g] * 1.853136
# [pyGAPS] BET surface area: a = 6 m2/g, The BET constant is: C = 796, Amount for a monolayer: n = 8e-05 mol/g
#   Amount for a monolayer: n = 8e-05 / (1/1000/22.414) = 8e-05 / 4.461e-5 = 1.79332 [cm3(STP)/g]
# graphitized carbon black (Carbopack F)
# P/P0, alpha-s, V[cm3(STP)/g], t[nm]
0.0000585, 0.00608, 0.01929184, 0.003614557
0.000116, 0.0122, 0.0387106, 0.007252895
0.00017, 0.0184, 0.0583832, 0.0109388
0.000219, 0.0245, 0.0777385, 0.01456524
0.000263, 0.0307, 0.0974111, 0.0182511
0.000304, 0.0368, 0.1167664, 0.0218776
0.000341, 0.043, 0.136439, 0.0255635
0.000375, 0.0492, 0.1561116, 0.02924938
0.000423, 0.059, 0.187207, 0.0350755
0.000466, 0.0688, 0.2183024, 0.0409016
0.000504, 0.0787, 0.2497151, 0.0467871
0.000539, 0.0885, 0.2808105, 0.0526132
0.00057, 0.0984, 0.3122232, 0.0584988
0.000598, 0.108, 0.342684, 0.064206
0.00063, 0.118, 0.374414, 0.070151
0.000654, 0.128, 0.406144, 0.0760959
0.000677, 0.138, 0.437874, 0.0820409
0.000698, 0.148, 0.469604, 0.0879859
0.000719, 0.158, 0.501334, 0.0939309
0.000739, 0.168, 0.533064, 0.0998759
0.000758, 0.177, 0.561621, 0.105226
0.000777, 0.187, 0.593351, 0.111171
0.000796, 0.197, 0.625081, 0.117116
0.000814, 0.207, 0.656811, 0.123061
0.000833, 0.217, 0.688541, 0.129006
0.000852, 0.227, 0.720271, 0.134951
0.000872, 0.237, 0.752001, 0.140896
0.000892, 0.247, 0.783731, 0.146841
0.000912, 0.257, 0.815461, 0.152786
0.000934, 0.267, 0.847191, 0.158731
0.000956, 0.276, 0.875748, 0.164082
0.000981, 0.286, 0.907478, 0.170027
0.00101, 0.296, 0.939208, 0.175972
0.00104, 0.306, 0.970938, 0.181917
0.00107, 0.316, 1.002668, 0.187862
0.0011, 0.326, 1.034398, 0.193807
0.00114, 0.336, 1.066128, 0.199752
0.00118, 0.345, 1.094685, 0.205102
0.00123, 0.355, 1.126415, 0.211047
0.00129, 0.365, 1.158145, 0.216992
0.00135, 0.375, 1.189875, 0.222937
0.00142, 0.384, 1.218432, 0.228288
0.00151, 0.394, 1.250162, 0.234233
0.00162, 0.404, 1.281892, 0.240178
0.00175, 0.413, 1.310449, 0.245528
0.00191, 0.423, 1.342179, 0.251473
0.00211, 0.432, 1.370736, 0.256824
0.00237, 0.441, 1.399293, 0.262174
0.00269, 0.45, 1.42785, 0.267525
0.00311, 0.459, 1.456407, 0.272875
0.00365, 0.467, 1.481791, 0.277631
0.00432, 0.475, 1.507175, 0.282387
0.00516, 0.482, 1.529386, 0.286549
0.00619, 0.489, 1.551597, 0.29071
0.00757, 0.496, 1.573808, 0.294872
0.00922, 0.503, 1.596019, 0.299033
0.0111, 0.508, 1.611884, 0.302006
0.0123, 0.511, 1.621403, 0.303789
0.0126, 0.512, 1.624576, 0.304384
0.0151, 0.517, 1.640441, 0.307356
0.0178, 0.522, 1.656306, 0.310329
0.0202, 0.526, 1.668998, 0.312707
0.0215, 0.528, 1.675344, 0.313896
0.0228, 0.53, 1.68169, 0.315085
0.0241, 0.532, 1.688036, 0.316274
0.0247, 0.533, 1.691209, 0.316868
0.0254, 0.534, 1.694382, 0.317463
0.0259, 0.535, 1.697555, 0.318057
0.0276, 0.537, 1.703901, 0.319246
0.0283, 0.538, 1.707074, 0.319841
0.0301, 0.541, 1.716593, 0.321624
0.0309, 0.542, 1.719766, 0.322219
0.0328, 0.546, 1.732458, 0.324597
0.0336, 0.547, 1.735631, 0.325191
0.0354, 0.55, 1.74515, 0.326975
0.0361, 0.551, 1.748323, 0.327569
0.0377, 0.554, 1.757842, 0.329353
0.0384, 0.556, 1.764188, 0.330542
0.0403, 0.559, 1.773707, 0.332325
0.0428, 0.563, 1.786399, 0.334703
0.0454, 0.567, 1.799091, 0.337081
0.0503, 0.572, 1.814956, 0.340054
0.0601, 0.579, 1.837167, 0.344215
0.0708, 0.585, 1.856205, 0.347782
0.0809, 0.589, 1.868897, 0.35016
0.091, 0.594, 1.884762, 0.353133
0.101, 0.598, 1.897454, 0.355511
0.111, 0.602, 1.910146, 0.357889
0.121, 0.605, 1.919665, 0.359672
0.131, 0.609, 1.932357, 0.36205
0.141, 0.613, 1.945049, 0.364428
0.151, 0.617, 1.957741, 0.366806
0.161, 0.621, 1.970433, 0.369184
0.171, 0.625, 1.983125, 0.371562
0.181, 0.629, 1.995817, 0.37394
0.191, 0.634, 2.011682, 0.376913
0.201, 0.639, 2.027547, 0.379885
0.211, 0.644, 2.043412, 0.382858
0.221, 0.649, 2.059277, 0.38583
0.231, 0.655, 2.078315, 0.389397
0.241, 0.661, 2.097353, 0.392964
0.251, 0.667, 2.116391, 0.396531
0.26, 0.674, 2.138602, 0.400693
0.27, 0.682, 2.163986, 0.405449
0.28, 0.69, 2.18937, 0.410205
0.289, 0.7, 2.2211, 0.41615
0.299, 0.711, 2.256003, 0.422689
0.308, 0.724, 2.297252, 0.430418
0.318, 0.738, 2.341674, 0.438741
0.327, 0.755, 2.395615, 0.448847
0.336, 0.776, 2.462248, 0.461332
0.349, 0.812, 2.576476, 0.482734
0.36, 0.852, 2.703396, 0.506514
0.371, 0.895, 2.839835, 0.532077
0.381, 0.936, 2.969928, 0.556452
0.39, 0.97, 3.07781, 0.5766646
0.4, 1, 3.173, 0.5945
0.41, 1.03, 3.26819, 0.612335
0.42, 1.05, 3.33165, 0.624225
0.43, 1.07, 3.39511, 0.636115
0.44, 1.09, 3.45857, 0.648005
0.45, 1.1, 3.4903, 0.65395
0.46, 1.12, 3.55376, 0.66584
0.47, 1.13, 3.58549, 0.671785
0.48, 1.14, 3.61722, 0.67773
0.49, 1.15, 3.64895, 0.683675
0.5, 1.17, 3.71241, 0.695565
0.51, 1.18, 3.74414, 0.70151
0.52, 1.19, 3.77587, 0.707455
0.53, 1.2, 3.8076, 0.7134
0.54, 1.21, 3.83933, 0.719345
0.55, 1.22, 3.87106, 0.725289
0.56, 1.24, 3.93452, 0.737179
0.57, 1.25, 3.96625, 0.743124
0.579, 1.26, 3.99798, 0.749069
0.59, 1.28, 4.06144, 0.760959
0.599, 1.3, 4.1249, 0.772849
0.61, 1.32, 4.18836, 0.784739
0.62, 1.34, 4.25182, 0.796629
0.63, 1.36, 4.31528, 0.808519
0.64, 1.39, 4.41047, 0.826354
0.65, 1.42, 4.50566, 0.844189
0.66, 1.44, 4.56912, 0.856079
0.67, 1.47, 4.66431, 0.873914
0.68, 1.5, 4.7595, 0.891749
0.69, 1.53, 4.85469, 0.909584
0.7, 1.55, 4.91815, 0.921474
0.71, 1.58, 5.01334, 0.939309
0.72, 1.6, 5.0768, 0.951199
0.728, 1.62, 5.14026, 0.963089
0.741, 1.64, 5.20372, 0.974979
0.75, 1.67, 5.29891, 0.992814
0.76, 1.69, 5.36237, 1.0047
0.77, 1.71, 5.42583, 1.01659
0.78, 1.73, 5.48929, 1.02848
0.79, 1.75, 5.55275, 1.04037
0.8, 1.77, 5.61621, 1.05226
0.81, 1.79, 5.67967, 1.06415
0.819, 1.82, 5.77486, 1.08199
0.829, 1.85, 5.87005, 1.09982
0.839, 1.88, 5.96524, 1.11766
0.848, 1.92, 6.09216, 1.14144
0.854, 1.96, 6.21908, 1.16522
0.859, 2.02, 6.40946, 1.20089
0.865, 2.11, 6.69503, 1.25439
0.872, 2.18, 6.91714, 1.29601
0.9, 2.34, 7.42482, 1.39113
0.93, 2.52, 7.99596, 1.49814
0.937, 2.59, 8.21807, 1.53975
0.947, 2.72, 8.63056, 1.61704
0.956, 2.93, 9.29689, 1.74188
0.97, 3.21, 10.18533, 1.90834
0.978, 3.39, 10.75647, 2.01535
0.985, 3.67, 11.64491, 2.18181
0.991, 3.94, 12.50162, 2.34233

File: Carbopack_F_Ar_87K_convert_data.txt
# Carbopack F Graphitized Carbon Black, Ar, 87 K, data
# L. Gardner et al., J. Phys. Chem. B 105 (2001).
# V(alpha-s=1) = V(P/P0=0.4) = V0.4 = 3.108 [cm3(STP)/g], S(BET) = 6.01 [m2/g]
# S(alpha-s)[m2/g] = slope[cm3(STP)/g] * 6.01/3.108 = slope[cm3(STP)/g] * 1.933719
# [pyGAPS] BET surface area: a = 6 m2/g, The BET constant is: C = 859, Amount for a monolayer: n = 7e-05 mol/g
#   Amount for a monolayer: n = 7e-05 / (1/1000/22.414) = 7e-05 / 4.461e-5 = 1.569155 [cm3(STP)/g]
# graphitized carbon black (Carbopack F)
# P/P0, alpha-s, V[cm3(STP)/g], t[nm]
0.000128, 0.00917, 0.02850036, 0.006102725
0.000249, 0.0184, 0.0571872, 0.01224538
0.000354, 0.0274, 0.0851592, 0.018235
0.00045, 0.0364, 0.1131312, 0.0242246
0.000538, 0.0456, 0.1417248, 0.0303472
0.00062, 0.0548, 0.1703184, 0.0364699
0.000695, 0.0641, 0.1992228, 0.0426592
0.000765, 0.0735, 0.228438, 0.048915
0.00083, 0.0829, 0.2576532, 0.0551708
0.000891, 0.0924, 0.2871792, 0.0614931
0.000949, 0.102, 0.317016, 0.067882
0.001, 0.111, 0.344988, 0.0738716
0.00106, 0.121, 0.376068, 0.0805267
0.00111, 0.131, 0.407148, 0.0871818
0.00116, 0.14, 0.43512, 0.0931714
0.0012, 0.15, 0.4662, 0.0998265
0.00125, 0.16, 0.49728, 0.106482
0.0013, 0.169, 0.525252, 0.112471
0.00134, 0.179, 0.556332, 0.119126
0.00139, 0.188, 0.584304, 0.125116
0.00143, 0.198, 0.615384, 0.131771
0.00148, 0.208, 0.646464, 0.138426
0.00152, 0.217, 0.674436, 0.144416
0.00157, 0.227, 0.705516, 0.151071
0.00162, 0.237, 0.736596, 0.157726
0.00167, 0.246, 0.764568, 0.163715
0.00172, 0.256, 0.795648, 0.170371
0.00177, 0.265, 0.82362, 0.17636
0.00183, 0.275, 0.8547, 0.183015
0.00189, 0.284, 0.882672, 0.189005
0.00196, 0.294, 0.913752, 0.19566
0.00203, 0.303, 0.941724, 0.201649
0.0021, 0.312, 0.969696, 0.207639
0.00218, 0.322, 1.000776, 0.214294
0.00227, 0.331, 1.028748, 0.220284
0.00236, 0.34, 1.05672, 0.226273
0.00247, 0.349, 1.084692, 0.232263
0.00258, 0.358, 1.112664, 0.238253
0.00271, 0.366, 1.137528, 0.243577
0.00286, 0.375, 1.1655, 0.249566
0.00302, 0.383, 1.190364, 0.25489
0.00319, 0.391, 1.215228, 0.260214
0.00339, 0.399, 1.240092, 0.265538
0.00362, 0.406, 1.261848, 0.270197
0.00386, 0.414, 1.286712, 0.275521
0.00413, 0.42, 1.30536, 0.279514
0.00444, 0.427, 1.327116, 0.284173
0.00481, 0.434, 1.348872, 0.288831
0.00523, 0.441, 1.370628, 0.29349
0.00569, 0.447, 1.389276, 0.297483
0.0062, 0.452, 1.404816, 0.30081
0.00675, 0.458, 1.423464, 0.304803
0.00755, 0.465, 1.44522, 0.309462
0.00813, 0.469, 1.457652, 0.312124
0.00875, 0.473, 1.470084, 0.314786
0.0094, 0.477, 1.482516, 0.317448
0.01, 0.48, 1.49184, 0.319445
0.0113, 0.486, 1.510488, 0.323438
0.0125, 0.491, 1.526028, 0.326765
0.015, 0.498, 1.547784, 0.331424
0.0175, 0.505, 1.56954, 0.336082
0.0202, 0.511, 1.588188, 0.340075
0.025, 0.518, 1.609944, 0.344734
0.0301, 0.525, 1.6317, 0.349393
0.0351, 0.531, 1.650348, 0.353386
0.0401, 0.536, 1.665888, 0.356713
0.0452, 0.541, 1.681428, 0.360041
0.0501, 0.545, 1.69386, 0.362703
0.0573, 0.551, 1.712508, 0.366696
0.0695, 0.56, 1.74048, 0.372685
0.0793, 0.567, 1.762236, 0.377344
0.089, 0.573, 1.780884, 0.381337
0.0987, 0.58, 1.80264, 0.385996
0.117, 0.591, 1.836828, 0.393316
0.137, 0.602, 1.871016, 0.400637
0.156, 0.616, 1.914528, 0.409954
0.176, 0.633, 1.967364, 0.421268
0.195, 0.649, 2.017092, 0.431916
0.215, 0.671, 2.085468, 0.446557
0.235, 0.694, 2.156952, 0.461864
0.256, 0.719, 2.234652, 0.478502
0.276, 0.746, 2.318568, 0.49647
0.297, 0.778, 2.418024, 0.517767
0.317, 0.817, 2.539236, 0.543721
0.337, 0.861, 2.675988, 0.573004
0.36, 0.914, 2.840712, 0.608276
0.381, 0.959, 2.980572, 0.638224
0.4, 1, 3.108, 0.66551
0.42, 1.04, 3.23232, 0.69213
0.44, 1.07, 3.32556, 0.712095
0.46, 1.1, 3.4188, 0.732061
0.48, 1.13, 3.51204, 0.752026
0.5, 1.15, 3.5742, 0.765336
0.52, 1.18, 3.66744, 0.785302
0.54, 1.21, 3.76068, 0.805267
0.56, 1.23, 3.82284, 0.818577
0.58, 1.26, 3.91608, 0.838542
0.6, 1.3, 4.0404, 0.865163
0.62, 1.34, 4.16472, 0.891783
0.64, 1.38, 4.28904, 0.918403
0.66, 1.44, 4.47552, 0.958334
0.68, 1.5, 4.662, 0.998265
0.7, 1.57, 4.87956, 1.04485
0.72, 1.65, 5.1282, 1.09809
0.74, 1.72, 5.34576, 1.14468
0.76, 1.78, 5.53224, 1.18461
0.78, 1.84, 5.71872, 1.22454
0.8, 1.91, 5.93628, 1.27112
0.819, 1.98, 6.15384, 1.31771
0.84, 2.07, 6.43356, 1.37761
0.86, 2.17, 6.74436, 1.44416
0.879, 2.3, 7.1484, 1.53067
0.899, 2.45, 7.6146, 1.6305
0.919, 2.63, 8.17404, 1.75029
0.94, 2.9, 9.0132, 1.92998
0.954, 3.27, 10.16316, 2.17622
0.964, 3.63, 11.28204, 2.4158
0.975, 4.22, 13.11576, 2.80845
0.984, 5.09, 15.81972, 3.38744
0.988, 5.9, 18.3372, 3.92651

File: Carbopack_F_N2_77K_convert_data.txt
# Carbopack F Graphitized Carbon Black, N2, 77.4 K, data, t
# M. Kruk et al., Langmuir 15 (1999) 1435-1441.
# BET specific surface area (m2/g): 6.2
# total pore volume (cm3/g): 0.02
# % graphite crystallinity: 95
# adsorption potential of monolayer formation (kJ/mol): 5.55
# adsorption potential of two-dimensional fluid-solid phase transition (kJ/mol): 3.12
# V(alpha-s=1) = V(P/P0=0.4) = V0.4 = 2.658 [cm3(STP)/g], S(BET) = 6.2 [m2/g]
# S(alpha-s)[m2/g] = slope[cm3(STP)/g] * 6.2/2.658 = slope[cm3(STP)/g] * 2.332581
# [pyGASP] BET surface area: a = 7 m2/g, The BET constant is: C = 1728, Amount for a monolayer: n = 7e-05 mol/g
#   Amount for a monolayer: n = 7e-05 / (1/1000/22.414) = 7e-05 / 4.461e-5 = 1.569155 [cm3(STP)/g]
# Graphitized_Carbon_Blacks,
# P/P0, alpha-s, V[cm3(STP)/g], t[nm]
4.13E-06, 0.0041, 0.0108978, 0.002458534
9.01E-06, 0.0083, 0.0220614, 0.004977033
1.39E-05, 0.0124, 0.0329592, 0.007435567
1.87E-05, 0.0166, 0.0441228, 0.009954065
2.33E-05, 0.0207, 0.0550206, 0.0124126
2.78E-05, 0.0248, 0.0659184, 0.0148711
3.22E-05, 0.029, 0.077082, 0.0173896
3.65E-05, 0.0332, 0.0882456, 0.01990813
4.07E-05, 0.0373, 0.0991434, 0.0223667
4.84E-05, 0.0453, 0.1204074, 0.0271638
5.58E-05, 0.0532, 0.1414056, 0.03190098
6.29E-05, 0.0612, 0.1626696, 0.03669812
6.96E-05, 0.0692, 0.1839336, 0.04149526
7.61E-05, 0.0772, 0.2051976, 0.0462924
8.24E-05, 0.0851, 0.2261958, 0.0510296
8.85E-05, 0.0931, 0.2474598, 0.0558267
9.44E-05, 0.101, 0.268458, 0.0605639
1.00E-04, 0.109, 0.289722, 0.065361
1.06E-04, 0.117, 0.310986, 0.07015817
1.11E-04, 0.125, 0.33225, 0.07495531
1.17E-04, 0.133, 0.353514, 0.07975245
1.22E-04, 0.141, 0.374778, 0.08454959
1.28E-04, 0.149, 0.396042, 0.08934673
1.33E-04, 0.157, 0.417306, 0.09414387
1.39E-04, 0.165, 0.43857, 0.09894101
1.46E-04, 0.173, 0.459834, 0.103738
1.52E-04, 0.181, 0.481098, 0.108535
1.57E-04, 0.189, 0.502362, 0.113332
1.63E-04, 0.197, 0.523626, 0.11813
1.69E-04, 0.205, 0.54489, 0.122927
1.75E-04, 0.213, 0.566154, 0.127724
1.82E-04, 0.221, 0.587418, 0.132521
1.88E-04, 0.229, 0.608682, 0.137318
1.95E-04, 0.237, 0.629946, 0.142115
2.02E-04, 0.245, 0.65121, 0.146912
2.09E-04, 0.253, 0.672474, 0.15171
2.17E-04, 0.261, 0.693738, 0.156507
2.25E-04, 0.269, 0.715002, 0.161304
2.34E-04, 0.276, 0.733608, 0.165501
2.43E-04, 0.284, 0.754872, 0.170298
2.53E-04, 0.292, 0.776136, 0.175096
2.63E-04, 0.299, 0.794742, 0.179293
2.74E-04, 0.307, 0.816006, 0.18409
2.86E-04, 0.315, 0.83727, 0.188887
3.00E-04, 0.323, 0.858534, 0.193685
3.15E-04, 0.331, 0.879798, 0.198482
3.31E-04, 0.339, 0.901062, 0.203279
3.50E-04, 0.347, 0.922326, 0.208076
3.71E-04, 0.354, 0.940932, 0.212273
3.94E-04, 0.362, 0.962196, 0.217071
4.21E-04, 0.369, 0.980802, 0.221268
4.49E-04, 0.377, 1.002066, 0.226065
4.82E-04, 0.385, 1.02333, 0.230862
5.22E-04, 0.392, 1.041936, 0.23506
5.67E-04, 0.4, 1.0632, 0.239857
6.20E-04, 0.407, 1.081806, 0.244054
6.82E-04, 0.414, 1.100412, 0.248252
7.54E-04, 0.422, 1.121676, 0.253049
8.85E-04, 0.432, 1.148256, 0.259046
1.05E-03, 0.442, 1.174836, 0.265042
1.26E-03, 0.451, 1.198758, 0.270439
1.53E-03, 0.46, 1.22268, 0.275836
1.90E-03, 0.469, 1.246602, 0.281232
2.34E-03, 0.477, 1.267866, 0.286029
2.88E-03, 0.484, 1.286472, 0.290227
3.51E-03, 0.491, 1.305078, 0.294424
4.22E-03, 0.497, 1.321026, 0.298022
5.01E-03, 0.502, 1.334316, 0.301021
5.85E-03, 0.507, 1.347606, 0.304019
6.73E-03, 0.511, 1.358238, 0.306417
7.67E-03, 0.519, 1.379502, 0.311214
8.09E-03, 0.528, 1.403424, 0.316611
8.72E-03, 0.535, 1.42203, 0.320809
9.50E-03, 0.54, 1.43532, 0.323807
0.0104, 0.544, 1.445952, 0.326206
0.0125, 0.549, 1.459242, 0.329204
0.015, 0.553, 1.469874, 0.331602
0.0176, 0.555, 1.47519, 0.332802
0.0201, 0.558, 1.483164, 0.334601
0.0253, 0.561, 1.491138, 0.336399
0.0301, 0.564, 1.499112, 0.338198
0.0402, 0.569, 1.512402, 0.341197
0.0501, 0.574, 1.525692, 0.344195
0.0604, 0.579, 1.538982, 0.347193
0.0702, 0.584, 1.552272, 0.350191
0.0804, 0.589, 1.565562, 0.353189
0.0903, 0.594, 1.578852, 0.356188
0.1, 0.599, 1.592142, 0.359186
0.12, 0.609, 1.618722, 0.365182
0.14, 0.621, 1.650618, 0.372378
0.16, 0.635, 1.68783, 0.380773
0.18, 0.653, 1.735674, 0.391567
0.2, 0.671, 1.783518, 0.40236
0.224, 0.703, 1.868574, 0.421549
0.249, 0.739, 1.964262, 0.443136
0.273, 0.782, 2.078556, 0.46892
0.297, 0.829, 2.203482, 0.497104
0.322, 0.878, 2.333724, 0.5264861
0.351, 0.923, 2.453334, 0.55347
0.375, 0.967, 2.570286, 0.579854
0.4, 1, 2.658, 0.599642
0.425, 1.03, 2.73774, 0.617632
0.45, 1.057, 2.809506, 0.633822
0.475, 1.082, 2.875956, 0.648813
0.5, 1.107, 2.942406, 0.663804
0.525, 1.133, 3.011514, 0.679395
0.55, 1.158, 3.077964, 0.694386
0.575, 1.186, 3.152388, 0.711176
0.6, 1.219, 3.240102, 0.730964
0.625, 1.254, 3.333132, 0.751952
0.65, 1.295, 3.44211, 0.776537
0.675, 1.341, 3.564378, 0.804121
0.7, 1.393, 3.702594, 0.835302
0.725, 1.449, 3.851442, 0.868882
0.75, 1.51, 4.01358, 0.90546
0.774, 1.574, 4.183692, 0.943837
0.799, 1.644, 4.369752, 0.985812
0.819, 1.708, 4.539864, 1.02419
0.839, 1.781, 4.733898, 1.06796
0.859, 1.867, 4.962486, 1.11953
0.878, 1.973, 5.244234, 1.18309
0.899, 2.12, 5.63496, 1.27124
0.911, 2.22, 5.90076, 1.33121
0.92, 2.32, 6.16656, 1.39117
0.929, 2.44, 6.48552, 1.46313
0.939, 2.6, 6.9108, 1.55907
0.948, 2.81, 7.46898, 1.685
0.958, 3.12, 8.29296, 1.87088
0.967, 3.51, 9.32958, 2.10475
0.973, 3.98, 10.57884, 2.38658
0.985, 5.59, 14.85822, 3.352

File: G25_Ar_77K_reference_data.txt
# graphite (G25), Ar, 77 K, data, t
# K. Miura et al., Adsorption (2007) 13: 139-147.: DOI 10.1007/s10450-007-9015-7
# Vm=V(theta=1) = 3.16 [cm3/g], C-value = 352, S = 11.70 [m2/g]
# V(alpha-s=1) = V(P/P0=0.4) = V0.4 = 5.60294 [cm3/g]
# S(alpha-s)[m2/g] = slope[cm3(STP)/g] * 11.70/5.60294 = slope[cm3(STP)/g] * 2.088189
# [pyGASP] BET surface area: a = 12 m2/g, The BET constant is: C = 98, Amount for a monolayer: n = 0.00015 mol/g
#   Amount for a monolayer: n = 0.00015 / (1/1000/22.414) = 0.00015 / 4.461e-5 = 3.36247 [cm3(STP)/g]
# relative_pressure_X, V[cm3(STP)/g], theta, alpha-s, t[nm]
2.98E-04, 0.5361, 0.1697, 0.09568191, 0.0570192
8.94E-04, 1.1452, 0.3624, 0.204393, 0.1217664
1.79E-03, 1.7237, 0.5455, 0.307642, 0.183288
4.63E-03, 2.2388, 0.7085, 0.399576, 0.238056
1.53E-02, 2.6341, 0.8336, 0.470128, 0.2800896
2.49E-02, 2.7932, 0.8839, 0.498524, 0.2969904
3.64E-02, 2.9302, 0.9273, 0.522975, 0.3115728
4.78E-02, 3.0468, 0.9642, 0.543786, 0.3239712
6.68E-02, 3.1992, 1.0124, 0.570986, 0.3401664
8.44E-02, 3.3134, 1.0485, 0.591368, 0.352296
0.1291, 3.5658, 1.1284, 0.636416, 0.3791424
0.1711, 3.7902, 1.1994, 0.676466, 0.4029984
0.2079, 3.9899, 1.2626, 0.712108, 0.4242336
0.246, 4.2141, 1.3336, 0.752123, 0.4480896
0.2776, 4.4141, 1.3969, 0.787819, 0.4693584
0.3064, 4.629, 1.4649, 0.826173, 0.4922064
0.3452, 5.0009, 1.5826, 0.892549, 0.5317536
0.3699, 5.3021, 1.6779, 0.946307, 0.5637744
0.4076, 5.6789, 1.7971, 1.01356, 0.6038256
0.4532, 6.041, 1.9117, 1.07818, 0.6423312
0.5023, 6.414, 2.0297, 1.14476, 0.6819792
0.554, 6.8251, 2.1598, 1.21813, 0.7256928
0.599, 7.2312, 2.2884, 1.29061, 0.7689024
0.6551, 7.9057, 2.5018, 1.41099, 0.8406048
0.7053, 8.5676, 2.7113, 1.52913, 0.9109968
0.7529, 9.256, 2.9291, 1.65199, 0.9841776
0.7963, 10.032, 3.1747, 1.79049, 1.0667
0.8253, 10.736, 3.3975, 1.91614, 1.14156
0.8487, 11.531, 3.6491, 2.05803, 1.2261
0.9088, 14.603, 4.6212, 2.60631, 1.55272
0.9412, 18.041, 5.7092, 3.21992, 1.91829
0.9582, 20.98, 6.6392, 3.74446, 2.23077

File: Graphitized_carbon_black_sample_GCB-I_N2_77K_convert_data.txt
# Graphitized carbon black (GCB-I), N2, 77.4 K
# K. Nakai et al., DOI:10.1016/j.jcis.2010.08.005
# V(alpha-s=1) = V(P/P0=0.4) = V0.4 = 22.7 [cm3(STP)/g], V(theta=1)=12.5 [cm3(STP)/g], S(BET) = 54.2 [m2/g]
# S(alpha-s)[m2/g] = slope[cm3(STP)/g] * 54.2/22.7 = slope[cm3(STP)/g] * 2.387665
# [pyGASP] BET surface area: a = 54 m2/g, The BET constant is: C = 1345, Amount for a monolayer: n = 0.00056 mol/g
#   Amount for a monolayer: n = 0.00056 / (1/1000/22.414) = 0.00056 / 4.461e-5 = 12.5532 [cm3(STP)/g]
# n/(molecules/nm2) = 0.602 * Gamma/(micro mol/m2)
# P/P0, alpha-s, Gamma(micro mol/m2), V[cm3(STP)/g], t[nm]
0.0000004, 0.00198, 0.037, 0.044946, 0.001272871
0.0000006, 0.00273, 0.051, 0.061971, 0.001755019
0.000001, 0.0037, 0.068, 0.08399, 0.002378597
0.0000015, 0.0048, 0.09, 0.10896, 0.003085747
0.000002, 0.0058, 0.109, 0.13166, 0.003728611
0.0000025, 0.0067, 0.126, 0.15209, 0.004307189
0.000003, 0.0076, 0.143, 0.17252, 0.004885766
0.0000035, 0.0085, 0.158, 0.19295, 0.005464344
0.000004, 0.0093, 0.174, 0.21111, 0.005978635
0.000005, 0.0108, 0.203, 0.24516, 0.006942931
0.000006, 0.0123, 0.231, 0.27921, 0.007907227
0.000007, 0.0136, 0.254, 0.30872, 0.00874295
0.000008, 0.0148, 0.276, 0.33596, 0.009514387
0.000009, 0.016, 0.299, 0.3632, 0.0102858
0.00001, 0.0172, 0.321, 0.39044, 0.0110573
0.000015, 0.0229, 0.428, 0.51983, 0.0147216
0.00002, 0.0282, 0.527, 0.64014, 0.0181288
0.00003, 0.0388, 0.725, 0.88076, 0.0249431
0.00004, 0.048, 0.898, 1.0896, 0.0308575
0.00005, 0.0573, 1.071, 1.30071, 0.0368361
0.00006, 0.067, 1.252, 1.5209, 0.0430719
0.00007, 0.0762, 1.425, 1.72974, 0.0489862
0.00008, 0.0859, 1.607, 1.94993, 0.055222
0.00009, 0.0965, 1.8, 2.19055, 0.0620364
0.0001, 0.106, 1.99, 2.4062, 0.0681436
0.00012, 0.126, 2.35, 2.8602, 0.0810009
0.00015, 0.156, 2.92, 3.5412, 0.100287
0.0002, 0.203, 3.79, 4.6081, 0.130501
0.00025, 0.242, 4.53, 5.4934, 0.155573
0.0003, 0.273, 5.11, 6.1971, 0.175502
0.00035, 0.3, 5.6, 6.81, 0.1928592
0.0004, 0.322, 6.01, 7.3094, 0.207002
0.0005, 0.352, 6.59, 7.9904, 0.226288
0.0006, 0.374, 7, 8.4898, 0.240431
0.0007, 0.39, 7.29, 8.853, 0.250717
0.0008, 0.403, 7.54, 9.1481, 0.259074
0.001, 0.419, 7.83, 9.5113, 0.26936
0.0015, 0.442, 8.27, 10.0334, 0.284146
0.002, 0.456, 8.54, 10.3512, 0.293146
0.003, 0.476, 8.9, 10.8052, 0.306003
0.004, 0.486, 9.09, 11.0322, 0.312432
0.005, 0.493, 9.23, 11.1911, 0.316932
0.007, 0.505, 9.44, 11.4635, 0.324646
0.008, 0.509, 9.52, 11.5543, 0.327218
0.01, 0.516, 9.66, 11.7132, 0.331718
0.02, 0.54, 10.09, 12.258, 0.347147
0.025, 0.547, 10.23, 12.4169, 0.351647
0.03, 0.552, 10.33, 12.5304, 0.354861
0.04, 0.562, 10.5, 12.7574, 0.36129
0.05, 0.57, 10.65, 12.939, 0.366432
0.07, 0.584, 10.93, 13.2568, 0.375433
0.08, 0.591, 11.05, 13.4157, 0.379933
0.1, 0.604, 11.3, 13.7108, 0.38829
0.15, 0.643, 12.03, 14.5961, 0.413362
0.2, 0.692, 12.94, 15.7084, 0.444862
0.25, 0.758, 14.17, 17.2066, 0.487291
0.3, 0.837, 15.65, 18.9999, 0.538077
0.35, 0.921, 17.2, 20.9067, 0.592078
0.4, 1, 18.7, 22.7, 0.642864
0.45, 1.062, 19.9, 24.1074, 0.682722
0.5, 1.123, 21, 25.4921, 0.721936
0.55, 1.185, 22.2, 26.8995, 0.761794
0.6, 1.256, 23.5, 28.5112, 0.807437
0.65, 1.339, 25, 30.3953, 0.860795
0.7, 1.449, 27.1, 32.8923, 0.93151
0.75, 1.577, 29.5, 35.7979, 1.0138
0.8, 1.753, 32.8, 39.7931, 1.12694
0.82, 1.841, 34.4, 41.7907, 1.18351
0.85, 1.996, 37.3, 45.3092, 1.28316

File: Graphitized_carbon_black_sample_GCB-I_N2_87K_convert_data.txt
# Graphitized carbon black (GCB-I), N2, 87.3 K, data
# K. Nakai et al., DOI:10.1016/j.jcis.2011.10.061
# V(alpha-s=1) = V(P/P0=0.4) = V0.4 = 21.1 [cm3(STP)/g], V(theta=1)=12.2 [cm3(STP)/g], S(BET) = 54.2 [m2/g]
# S(alpha-s)[m2/g] = slope[cm3(STP)/g] * 54.2/21.1 = slope[cm3(STP)/g] * 2.56872
# [pyGASP] BET surface area: a = 55 m2/g. The BET constant is: C = 220, Amount for a monolayer: n = 0.00056 mol/g
#   Amount for a monolayer: n = 0.00056 / (1/1000/22.414) = 0.00056 / 4.461e-5 = 12.5532 [cm3(STP)/g]
# n/(molecules/nm2) = 0.602 * Gamma/(micro mol/m2)
# P/P0, alpha-s, Gamma(micro mol/m2), Gamma(N2/nm2), V[cm3(STP)/g], t[nm]
0.0000004, 0.00111, 0.0193, 0.0116, 0.023421, 0.000679593
0.0000006, 0.00144, 0.0251, 0.0151, 0.030384, 0.000881634
0.000001, 0.00205, 0.0356, 0.0214, 0.043255, 0.001255104
0.0000015, 0.00264, 0.0459, 0.0276, 0.055704, 0.001616329
0.000002, 0.00319, 0.0553, 0.0333, 0.067309, 0.001953064
0.0000025, 0.00365, 0.0633, 0.0381, 0.077015, 0.002234698
0.000003, 0.0041, 0.0712, 0.0428, 0.08651, 0.002510208
0.0000035, 0.00454, 0.0788, 0.0474, 0.095794, 0.002779596
0.000004, 0.00493, 0.0857, 0.0516, 0.104023, 0.003018372
0.000005, 0.00562, 0.0977, 0.0588, 0.118582, 0.003440822
0.000006, 0.00629, 0.109, 0.0657, 0.132719, 0.003851027
0.000007, 0.00686, 0.119, 0.0717, 0.144746, 0.004200007
0.000008, 0.00742, 0.129, 0.0776, 0.156562, 0.004542865
0.000009, 0.00795, 0.138, 0.0831, 0.167745, 0.004867355
0.00001, 0.00847, 0.147, 0.0886, 0.178717, 0.005185723
0.000015, 0.0111, 0.192, 0.116, 0.23421, 0.00679593
0.00002, 0.0137, 0.238, 0.143, 0.28907, 0.008387769
0.00003, 0.0189, 0.327, 0.197, 0.39879, 0.0115714
0.00004, 0.0233, 0.404, 0.243, 0.49163, 0.01426533
0.00005, 0.0271, 0.47, 0.283, 0.57181, 0.0165919
0.00006, 0.0308, 0.535, 0.322, 0.64988, 0.0188572
0.00007, 0.0341, 0.593, 0.357, 0.71951, 0.0208776
0.00008, 0.0379, 0.569, 0.397, 0.79969, 0.02320412
0.00009, 0.0422, 0.732, 0.441, 0.89042, 0.0258368
0.0001, 0.0464, 0.806, 0.485, 0.97904, 0.02840821
0.00012, 0.0554, 0.963, 0.58, 1.16894, 0.0339184
0.00015, 0.0682, 1.19, 0.714, 1.43902, 0.04175517
0.0002, 0.0919, 1.6, 0.961, 1.93909, 0.0562654
0.00025, 0.113, 1.97, , 2.3843, 0.0691838
0.0003, 0.135, 2.34, 1.41, 2.8485, 0.0826532
0.00035, 0.156, 2.7, 1.63, 3.2916, 0.0955104
0.0004, 0.176, 3.05, 1.84, 3.7136, 0.107755
0.0005, 0.212, 3.68, 2.21, 4.4732, 0.129796
0.0006, 0.244, 4.23, 2.55, 5.1484, 0.149388
0.0007, 0.271, 4.7, 2.83, 5.7181, 0.165919
0.0008, 0.294, 5.11, 3.08, 6.2034, 0.18
0.001, 0.333, 5.78, 3.48, 7.0263, 0.203878
0.0015, 0.385, 6.68, 4.02, 8.1235, 0.235715
0.002, 0.416, 7.23, 4.35, 8.7776, 0.254694
0.003, 0.449, 7.8, 4.69, 9.4739, 0.274898
0.004, 0.468, 8.14, 4.9, 9.8748, 0.286531
0.005, 0.481, 8.36, 5.03, 10.1491, 0.29449
0.007, 0.5, 8.69, 5.23, 10.55, 0.306123
0.008, 0.506, 8.8, 5.3, 10.6766, 0.309796
0.01, 0.516, 8.97, 5.4, 10.8876, 0.315919
0.015, 0.535, 9.29, 5.59, 11.2885, 0.327552
0.02, 0.547, 9.5, 5.72, 11.5417, 0.334899
0.03, 0.564, 9.8, 5.9, 11.9004, 0.345307
0.04, 0.577, 10, 6.03, 12.1747, 0.353266
0.05, 0.587, 10.2, 6.12, 12.3857, 0.359388
0.07, 0.605, 10.5, 6.33, 12.7655, 0.370409
0.08, 0.614, 10.7, 6.42, 12.9554, 0.375919
0.1, 0.631, 11, 6.6, 13.3141, 0.386327
0.15, 0.674, 11.7, 7.05, 14.2214, 0.412654
0.2, 0.724, 12.6, 7.57, 15.2764, 0.443266
0.25, 0.781, 13.6, 8.17, 16.4791, 0.478164
0.3, 0.848, 14.7, 8.87, 17.8928, 0.519185
0.35, 0.924, 16.1, 9.66, 19.4964, 0.565715
0.4, 1, 17.4, 10.5, 21.1, 0.612246