Folder: pyGAPS-v.4.4.0-python3.7-template/convert_PP0_to_alpha-s/carbon_additional_data (part 3)

File: Non-Graphitized_carbon_black_sample_NGCB_N2_77K_convert_data.txt
# Non-Graphitized carbon black (NGCB), N2, 77.4 K, data, t
# K. Nakai et al., DOI:10.1016/j.jcis.2010.08.005
# V(alpha-s=1) = V(P/P0=0.4) = V0.4 = 6.96 [cm3(STP)/g], V(theta=1)=4.34 [cm3(STP)/g], S(BET) = 18.9 [m2/g]
# S(alpha-s)[m2/g] = slope[cm3(STP)/g] * 18.9/6.96 = slope[cm3(STP)/g] * 2.715517
# [pyGASP] BET surface area: a = 19 m2/g, The BET constant is: C = 138, Amount for a monolayer: n = 0.00019 mol/g
#   Amount for a monolayer: n = 0.00019 / (1/1000/22.414) = 0.00019 / 4.461e-5 = 4.25913 [cm3(STP)/g]
# n/(molecules/nm2) = 0.602 * Gamma/(micro mol/m2)
# P/P0, alpha-s, Gamma(micro mol/m2), V[cm3(STP)/g], t[nm]
0.00000005, 0.0022, 0.035, 0.015312, 0.001272664
0.00000007, 0.0034, 0.057, 0.023664, 0.001966845
0.0000001, 0.005, 0.083, 0.0348, 0.002892418
0.00000015, 0.0066, 0.109, 0.045936, 0.003817992
0.0000002, 0.0076, 0.125, 0.052896, 0.004396476
0.00000025, 0.0085, 0.14, 0.05916, 0.004917111
0.0000003, 0.0093, 0.154, 0.064728, 0.005379898
0.0000004, 0.0111, 0.182, 0.077256, 0.006421169
0.0000005, 0.0126, 0.208, 0.087696, 0.007288895
0.000001, 0.0184, 0.303, 0.128064, 0.0106441
0.0000013, 0.021, 0.345, 0.14616, 0.0121482
0.000002, 0.0256, 0.421, 0.178176, 0.0148092
0.000003, 0.0309, 0.508, 0.215064, 0.0178751
0.000004, 0.0359, 0.591, 0.249864, 0.0207676
0.000005, 0.0402, 0.662, 0.279792, 0.023255
0.000006, 0.0445, 0.733, 0.30972, 0.0257425
0.000008, 0.0503, 0.828, 0.350088, 0.02909773
0.00001, 0.056, 0.922, 0.38976, 0.0323951
0.000013, 0.0618, 1.017, 0.430128, 0.0357503
0.00002, 0.0733, 1.206, 0.510168, 0.0424029
0.00003, 0.0862, 1.419, 0.599952, 0.0498653
0.00004, 0.0977, 1.608, 0.679992, 0.0565179
0.00006, 0.115, 1.89, 0.8004, 0.0665256
0.00008, 0.129, 2.13, 0.89784, 0.0746244
0.0001, 0.144, 2.36, 1.00224, 0.0833017
0.00013, 0.161, 2.65, 1.12056, 0.0931359
0.0002, 0.19, 3.12, 1.3224, 0.109912
0.0003, 0.223, 3.66, 1.55208, 0.129002
0.0004, 0.25, 4.11, 1.74, 0.144621
0.0005, 0.27, 4.45, 1.8792, 0.156191
0.0006, 0.283, 4.66, 1.96968, 0.163711
0.0008, 0.309, 5.08, 2.15064, 0.178751
0.001, 0.33, 5.44, 2.2968, 0.1909
0.0013, 0.352, 5.79, 2.44992, 0.203626
0.002, 0.382, 6.29, 2.65872, 0.220981
0.003, 0.409, 6.74, 2.84664, 0.2366
0.005, 0.441, 7.26, 3.06936, 0.255111
0.006, 0.453, 7.45, 3.15288, 0.262053
0.008, 0.471, 7.76, 3.27816, 0.272466
0.01, 0.484, 7.97, 3.36864, 0.279986
0.013, 0.499, 8.2, 3.47304, 0.288663
0.02, 0.522, 8.58, 3.63312, 0.301968
0.03, 0.546, 8.99, 3.80016, 0.315852
0.04, 0.568, 9.34, 3.95328, 0.328579
0.05, 0.582, 9.58, 4.05072, 0.336678
0.06, 0.596, 9.81, 4.14816, 0.344776
0.08, 0.621, 10.21, 4.32216, 0.359238
0.1, 0.644, 10.59, 4.48224, 0.372544
0.12, 0.668, 10.99, 4.64928, 0.386427
0.14, 0.687, 11.3, 4.78152, 0.3974183
0.16, 0.711, 11.7, 4.94856, 0.411302
0.18, 0.733, 12.06, 5.10168, 0.424029
0.2, 0.754, 12.41, 5.24784, 0.436177
0.22, 0.78, 12.84, 5.4288, 0.451217
0.24, 0.802, 13.19, 5.58192, 0.463944
0.26, 0.825, 13.57, 5.742, 0.477249
0.28, 0.848, 13.95, 5.90208, 0.490554
0.3, 0.874, 14.38, 6.08304, 0.505595
0.32, 0.899, 14.8, 6.25704, 0.520057
0.34, 0.922, 15.18, 6.41712, 0.533362
0.36, 0.948, 15.61, 6.59808, 0.548403
0.38, 0.974, 16.03, 6.77904, 0.563443
0.4, 1, 16.46, 6.96, 0.578484
0.42, 1.02, 16.8, 7.0992, 0.590053
0.44, 1.05, 17.3, 7.308, 0.607408
0.46, 1.07, 17.7, 7.4472, 0.618978
0.48, 1.1, 18.1, 7.656, 0.636332
0.5, 1.12, 18.5, 7.7952, 0.647902
0.52, 1.15, 18.9, 8.004, 0.665256
0.54, 1.18, 19.4, 8.2128, 0.682611
0.56, 1.21, 19.9, 8.4216, 0.699965
0.58, 1.24, 20.4, 8.6304, 0.71732
0.6, 1.27, 20.9, 8.8392, 0.734674
0.62, 1.3, 21.4, 9.048, 0.752029
0.64, 1.34, 22, 9.3264, 0.775168
0.66, 1.36, 22.5, 9.4656, 0.786738
0.68, 1.4, 23.1, 9.744, 0.809877
0.7, 1.45, 23.9, 10.092, 0.838801
0.72, 1.49, 24.6, 10.3704, 0.861941
0.74, 1.54, 25.3, 10.7184, 0.890865
0.76, 1.59, 26.2, 11.0664, 0.919789
0.78, 1.65, 27.2, 11.484, 0.9544981
0.8, 1.71, 28.1, 11.9016, 0.989207
0.82, 1.78, 29.3, 12.3888, 1.0297
0.84, 1.87, 30.7, 13.0152, 1.08176
0.85, 1.91, 31.4, 13.2936, 1.1049
0.86, 1.97, 32.4, 13.7112, 1.13961
0.87, 2.04, 33.6, 14.1984, 1.18011
0.88, 2.11, 34.8, 14.6856, 1.2206
0.9, 2.27, 37.4, 15.7992, 1.31316

File: Non-Graphitized_carbon_black_sample_NGCB_N2_87K_convert_data.txt
# Non-Graphitized carbon black (NGCB), N2, 87.3 K, data
# K. Nakai et al., DOI:10.1016/j.jcis.2011.10.061
# V(alpha-s=1) = V(P/P0=0.4) = V0.4 = 6.72 [cm3(STP)/g], V(theta=1)=4.21 [cm3(STP)/g], S(BET) = 18.9 [m2/g]
# S(alpha-s)[m2/g] = slope[cm3(STP)/g] * 18.9/6.72 = slope[cm3(STP)/g] * 2.8125
# [pyGASP] BET surface area: a = 18 m2/g, The BET constant is: C = 148, Amount for a monolayer: n = 0.00019 mol/g
#   Amount for a monolayer: n = 0.00019 / (1/1000/22.414) = 0.00019 / 4.461e-5 = 4.25913 [cm3(STP)/g]
# n/(molecules/nm2) = 0.602 * Gamma/(micro mol/m2)
# P/P0, alpha-s, Gamma(micro mol/m2), Gamma(N2/nm2), V[cm3(STP)/g], t[nm]
0.0000002, 0.00104, 0.0166, 0.01, 0.0069888, 0.000587657
0.0000004, 0.00218, 0.0347, 0.0209, 0.0146496, 0.001231819
0.0000006, 0.00335, 0.0532, 0.0321, 0.022512, 0.001892933
0.000001, 0.00552, 0.0878, 0.0528, 0.0370944, 0.003119102
0.0000015, 0.00791, 0.126, 0.0758, 0.0531552, 0.004469582
0.000002, 0.01, 0.159, 0.0957, 0.0672, 0.005650546
0.0000025, 0.0117, 0.186, 0.112, 0.078624, 0.006611139
0.000003, 0.0133, 0.212, 0.128, 0.089376, 0.007515227
0.0000035, 0.0147, 0.234, 0.141, 0.098784, 0.008306303
0.000004, 0.016, 0.254, 0.153, 0.10752, 0.009040874
0.000005, 0.0181, 0.289, 0.174, 0.121632, 0.0102275
0.000006, 0.0202, 0.322, 0.194, 0.135744, 0.0114141
0.000007, 0.022, 0.35, 0.211, 0.14784, 0.0124312
0.000008, 0.0238, 0.378, 0.228, 0.159936, 0.0134483
0.000009, 0.0254, 0.405, 0.244, 0.170688, 0.0143524
0.00001, 0.0269, 0.428, 0.258, 0.180768, 0.01519997
0.000015, 0.0333, 0.53, 0.319, 0.223776, 0.0188163
0.00002, 0.0393, 0.625, 0.376, 0.264096, 0.0222066
0.00003, 0.0483, 0.769, 0.463, 0.324576, 0.0272921
0.00004, 0.0562, 0.894, 0.538, 0.377664, 0.03175607
0.00005, 0.0622, 0.989, 0.595, 0.417984, 0.0351464
0.00006, 0.0681, 1.08, 0.652, 0.457632, 0.03848022
0.00007, 0.0736, 1.17, 0.705, 0.494592, 0.041588
0.00008, 0.0788, 1.25, 0.755, 0.529536, 0.0445263
0.00009, 0.0838, 1.33, 0.802, 0.563136, 0.0473516
0.0001, 0.0882, 1.4, 0.844, 0.592704, 0.0498378
0.00012, 0.0965, 1.54, 0.924, 0.64848, 0.0545278
0.00015, 0.108, 1.72, 1.04, 0.72576, 0.0610259
0.0002, 0.125, 1.99, 1.2, 0.84, 0.0706318
0.00025, 0.141, 2.24, 1.35, 0.94752, 0.0796727
0.0003, 0.154, 2.45, 2.45, 1.03488, 0.0870184
0.00035, 0.166, 2.64, 1.59, 1.11552, 0.0937991
0.0004, 0.177, 2.81, 1.69, 1.18944, 0.100015
0.0005, 0.195, 3.1, 1.87, 1.3104, 0.110186
0.0006, 0.211, 3.36, 2.02, 1.41792, 0.119227
0.0007, 0.224, 3.57, 2.15, 1.50528, 0.126572
0.0008, 0.236, 3.76, 2.26, 1.58592, 0.133353
0.001, 0.256, 4.07, 2.45, 1.72032, 0.144654
0.0015, 0.295, 4.69, 2.83, 1.9824, 0.166691
0.002, 0.323, 5.13, 3.09, 2.17056, 0.182513
0.003, 0.358, 5.7, 3.43, 2.40576, 0.20229
0.004, 0.384, 6.1, 3.67, 2.58048, 0.216981
0.005, 0.404, 6.43, 3.87, 2.71488, 0.228282
0.007, 0.431, 6.86, 4.13, 2.89632, 0.243539
0.008, 0.44, 7, 4.22, 2.9568, 0.248624
0.01, 0.457, 7.26, 4.37, 3.07104, 0.25823
0.015, 0.489, 7.78, 4.68, 3.28608, 0.276312
0.02, 0.509, 8.1, 4.88, 3.42048, 0.287613
0.025, 0.525, 8.34, 5.02, 3.528, 0.296654
0.03, 0.54, 8.58, 5.17, 3.6288, 0.30513
0.04, 0.563, 8.95, 5.39, 3.78336, 0.318126
0.05, 0.581, 9.24, 5.57, 3.90432, 0.328297
0.07, 0.611, 9.72, 5.85, 4.10592, 0.345248
0.08, 0.624, 9.92, 5.97, 4.19328, 0.352594
0.1, 0.649, 10.3, 6.22, 4.36128, 0.36672
0.15, 0.707, 11.2, 6.76, 4.75104, 0.399494
0.2, 0.76, 12.1, 7.28, 5.1072, 0.429442
0.25, 0.817, 13, 7.82, 5.49024, 0.46165
0.3, 0.875, 13.9, 8.37, 5.88, 0.494423
0.35, 0.936, 14.9, 8.96, 6.28992, 0.528891
0.4, 1, 15.9, 9.57, 6.72, 0.565055

File: OGA_N2_77K_reference_data.txt
# graphite (OGA), N2, 77 K, data, t
# K. Miura et al., Adsorption (2007) 13: 139-147.: DOI 10.1007/s10450-007-9015-7
# Vm=V(theta=1) = 1.30 [cm3/g], C-value = 849, S = 5.66 [m2/g]
# V(alpha-s=1) = V(P/P0=0.4) = V0.4 = 2.490465 [cm3/g]
# S(alpha-s)[m2/g] = slope[cm3(STP)/g] * 5.66/2.490465 = slope[cm3(STP)/g] * 2.272668
# [pyGASP] BET surface area: a = 6 m2/g, The BET constant is: C = 51, Amount for a monolayer: n = 7e-05 mol/g
#   Amount for a monolayer: n = 7e-05 / (1/1000/22.414) = 7e-05 / 4.461e-5 = 1.56915 [cm3(STP)/g]
# relative_pressure_X, V[cm3(STP)/g], theta, alpha-s, t[nm]
3.18E-04, 0.5751, 0.4424, 0.230921, 0.1566096
8.44E-03, 1.1729, 0.9022, 0.470956, 0.3193788
1.89E-02, 1.2575, 0.9673, 0.504926, 0.3424242
3.45E-02, 1.297, 0.9977, 0.520786, 0.3531858
4.48E-02, 1.3195, 1.015, 0.529821, 0.35931
6.10E-02, 1.3534, 1.0411, 0.543433, 0.3685494
7.62E-02, 1.3771, 1.0593, 0.552949, 0.3749922
9.10E-02, 1.4089, 1.0838, 0.565718, 0.3836652
1.15E-01, 1.4527, 1.1175, 0.583305, 0.395595
1.40E-01, 1.5008, 1.1545, 0.602618, 0.408693
0.1552, 1.5302, 1.1771, 0.614423, 0.4166934
0.1703, 1.564, 1.2031, 0.627995, 0.4258974
0.1898, 1.6327, 1.2559, 0.65558, 0.4445886
0.2098, 1.6927, 1.3021, 0.679672, 0.4609434
0.2296, 1.7706, 1.362, 0.710952, 0.482148
0.2589, 1.8838, 1.4491, 0.756405, 0.5129814
0.2887, 2.0254, 1.558, 0.813262, 0.551532
0.3091, 2.1184, 1.6295, 0.850604, 0.576843
0.3386, 2.2538, 1.7337, 0.904972, 0.6137298
0.3593, 2.3391, 1.7993, 0.939222, 0.6369522
0.3917, 2.4621, 1.8939, 0.988611, 0.6704406
0.4123, 2.5325, 1.9481, 1.01688, 0.6896274
0.4373, 2.6132, 2.0102, 1.04928, 0.7116108
0.4621, 2.7014, 2.078, 1.0847, 0.735612
0.4873, 2.7813, 2.1395, 1.11678, 0.757383
0.5121, 2.8635, 2.2027, 1.14979, 0.7797558
0.5415, 2.9631, 2.2793, 1.18978, 0.8068722
0.562, 3.0482, 2.3448, 1.22395, 0.8300592
0.5867, 3.1431, 2.4176, 1.26205, 0.8558304
0.6115, 3.2592, 2.5071, 1.30867, 0.8875134
0.6413, 3.4144, 2.6265, 1.37099, 0.929781
0.6668, 3.5601, 2.7385, 1.42949, 0.969429
0.6913, 3.7152, 2.8578, 1.49177, 1.01166
0.7161, 3.8901, 2.9924, 1.562, 1.05931
0.7408, 4.0774, 3.1365, 1.6372, 1.110321
0.7654, 4.2899, 3.2999, 1.72253, 1.16816
0.7899, 4.5215, 3.4781, 1.81552, 1.23125
0.8143, 4.7913, 3.6856, 1.92386, 1.3047
0.8423, 5.1818, 3.986, 2.08066, 1.411044
0.8627, 5.5536, 4.272, 2.22995, 1.512288
0.9009, 6.5602, 5.0463, 2.63413, 1.78639
0.9468, 9.2519, 7.1168, 3.71493, 2.51935
0.9537, 10.121, 7.7854, 4.0639, 2.75603

File: OGB_Ar_77K_reference_data.txt
# graphite (OGB), Ar, 77 K, data, t
# K. Miura et al., Adsorption (2007) 13: 139-147.: DOI 10.1007/s10450-007-9015-7
# Vm=V(theta=1) = 1.06 [cm3/g], C-value = 443, S = 3.91 [m2/g]
# V(alpha-s=1) = V(P/P0=0.4) = V0.4 = 2.076642 [cm3/g]
# S(alpha-s)[m2/g] = slope[cm3(STP)/g] * 3.91/2.076642 = slope[cm3(STP)/g] * 1.882847
# [pyGASP] BET surface area: a = 4 m2/g, The BET constant is: C = 290, Amount for a monolayer: n = 5e-05 mol/g
#   Amount for a monolayer: n = 5e-05 / (1/1000/22.414) = 5e-05 / 4.461e-5 = 1.12082 [cm3(STP)/g]
# relative_pressure_X, V[cm3(STP)/g], theta, alpha-s, t[nm]
2.07E-03, 0.6526, 0.6157, 0.314257, 0.2068752
7.56E-03, 0.8584, 0.8098, 0.41336, 0.2720928
1.71E-02, 0.9288, 0.8762, 0.447261, 0.2944032
2.81E-02, 0.9708, 0.9158, 0.467485, 0.3077088
4.70E-02, 1.0471, 0.9878, 0.504227, 0.3319008
6.65E-02, 1.0949, 1.0329, 0.527245, 0.3470544
8.21E-02, 1.1244, 1.0608, 0.541451, 0.3564288
9.73E-02, 1.1532, 1.0879, 0.55532, 0.3655344
0.1274, 1.1923, 1.1248, 0.574148, 0.3779328
0.1522, 1.2328, 1.163, 0.593651, 0.390768
0.1821, 1.275, 1.2028, 0.613972, 0.4041408
0.2212, 1.3369, 1.2612, 0.64378, 0.4237632
0.2702, 1.4319, 1.3508, 0.689527, 0.4538688
0.301, 1.5104, 1.4249, 0.727328, 0.4787664
0.3456, 1.7292, 1.6313, 0.83269, 0.5481168
0.3675, 1.8922, 1.7851, 0.911183, 0.5997936
0.4029, 2.0931, 1.9746, 1.00793, 0.6634656
0.4495, 2.2415, 2.1146, 1.07939, 0.7105056
0.5004, 2.3767, 2.2422, 1.14449, 0.7533792
0.5538, 2.5404, 2.3966, 1.22332, 0.8052576
0.599, 2.7183, 2.5644, 1.30899, 0.8616384
0.6554, 3.0923, 2.9173, 1.48909, 0.9802128
0.7076, 3.4078, 3.2149, 1.64101, 1.08021
0.7579, 3.7164, 3.506, 1.78962, 1.178016
0.8059, 4.0776, 3.8468, 1.96355, 1.29252
0.8462, 4.7716, 4.5015, 2.29775, 1.512504
0.8712, 5.3473, 5.0446, 2.57497, 1.69499
0.9075, 6.2346, 5.8817, 3.00225, 1.97625
0.9524, 9.5768, 9.0347, 4.61168, 3.03566

File: OGB_N2_77K_reference_data.txt
# graphite (OGB), N2, 77 K, data, t
# K. Miura et al., Adsorption (2007) 13: 139-147.: DOI 10.1007/s10450-007-9015-7
# Vm=V(theta=1) = 0.90 [cm3/g], C-value = 2242, S = 3.94 [m2/g]
# V(alpha-s=1) = V(P/P0=0.4) = V0.4 = 1.723016 [cm3/g]
# S(alpha-s)[m2/g] = slope[cm3(STP)/g] * 3.94/1.723016 = slope[cm3(STP)/g] * 2.286688
# [pyGASP] BET surface area: a = 4 m2/g, The BET constant is: C = 1664, Amount for a monolayer: n = 4e-05 mol/g
#   Amount for a monolayer: n = 4e-05 / (1/1000/22.414) = 4e-05 / 4.461e-5 = 0.89666 [cm3(STP)/g]
# relative_pressure_X, V[cm3(STP)/g], theta, alpha-s, t[nm]
1.50E-03, 0.7262, 0.8069, 0.42147, 0.2856426
8.09E-03, 0.8322, 0.9247, 0.48299, 0.3273438
1.84E-02, 0.9052, 1.0058, 0.525358, 0.3560532
3.39E-02, 0.9224, 1.0249, 0.53534, 0.3628146
4.40E-02, 0.9326, 1.0362, 0.54126, 0.3668148
5.97E-02, 0.9608, 1.0676, 0.557627, 0.3779304
7.48E-02, 0.9713, 1.0792, 0.563721, 0.3820368
8.98E-02, 0.9919, 1.1021, 0.575677, 0.3901434
1.12E-01, 1.0187, 1.1319, 0.591231, 0.4006926
1.37E-01, 1.0426, 1.1584, 0.605102, 0.4100736
0.1525, 1.0658, 1.1842, 0.618567, 0.4192068
0.1674, 1.0824, 1.2027, 0.628201, 0.4257558
0.1873, 1.1253, 1.2503, 0.653099, 0.4426062
0.2072, 1.1702, 1.3002, 0.679158, 0.4602708
0.2273, 1.2207, 1.3563, 0.708467, 0.4801302
0.2569, 1.303, 1.4478, 0.756232, 0.5125212
0.2867, 1.3975, 1.5528, 0.811078, 0.5496912
0.307, 1.4626, 1.6251, 0.84886, 0.5752854
0.3368, 1.5556, 1.7284, 0.902835, 0.6118536
0.3574, 1.6165, 1.7961, 0.93818, 0.6358194
0.3882, 1.693, 1.8811, 0.982579, 0.6659094
0.4088, 1.7454, 1.9393, 1.01299, 0.6865122
0.4337, 1.799, 1.9989, 1.0441, 0.7076106
0.4589, 1.8548, 2.0609, 1.07648, 0.7295586
0.4838, 1.8964, 2.1071, 1.10063, 0.7459134
0.5087, 1.9584, 2.176, 1.13661, 0.770304
0.5384, 2.0249, 2.2499, 1.17521, 0.7964646
0.5588, 2.0812, 2.3124, 1.20788, 0.8185896
0.5836, 2.1404, 2.3782, 1.24224, 0.8418828
0.6089, 2.2179, 2.4643, 1.28722, 0.8723622
0.6432, 2.3344, 2.5938, 1.35483, 0.9182052
0.6688, 2.4559, 2.7288, 1.42535, 0.9659952
0.6943, 2.5676, 2.8529, 1.49018, 1.00993
0.7188, 2.685, 2.9833, 1.55831, 1.05609
0.7435, 2.814, 3.1267, 1.63318, 1.10685
0.7688, 2.9692, 3.2991, 1.72326, 1.16788
0.7935, 3.1435, 3.4928, 1.82442, 1.23645
0.8177, 3.3297, 3.6997, 1.93248, 1.30969
0.8478, 3.618, 4.02, 2.09981, 1.42308
0.8666, 3.8753, 4.3059, 2.24914, 1.52429
0.9099, 4.7647, 5.2941, 2.76533, 1.87411
0.9592, 7.6331, 8.4812, 4.43008, 3.00234