Folder: pyGAPS-v.4.4.0-python3.7-template/convert_PP0_to_alpha-s/carbon (part 2)

File: Graphitized_carbon_black_sample_GCB-I_N2_77K_convert_data.txt
# Graphitized carbon black (GCB-I), N2, 77.4 K
# K. Nakai et al., DOI:10.1016/j.jcis.2010.08.005
# V(alpha-s=1) = V(P/P0=0.4) = V0.4 = 22.7 [cm3(STP)/g], V(theta=1)=12.5 [cm3(STP)/g], S(BET) = 54.2 [m2/g]
# S(alpha-s)[m2/g] = slope[cm3(STP)/g] * 54.2/22.7 = slope[cm3(STP)/g] * 2.387665
# n/(molecules/nm2) = 0.602 * Gamma/(micro mol/m2)
# P/P0, alpha-s, Gamma(micro mol/m2)
0.00000040, 0.00198, 0.037
0.00000060, 0.00273, 0.051
0.0000010, 0.0037, 0.068
0.0000015, 0.0048, 0.090
0.0000020, 0.0058, 0.109
0.0000025, 0.0067, 0.126
0.0000030, 0.0076, 0.143
0.0000035, 0.0085, 0.158
0.0000040, 0.0093, 0.174
0.0000050, 0.0108, 0.203
0.0000060, 0.0123, 0.231
0.0000070, 0.0136, 0.254
0.0000080, 0.0148, 0.276
0.0000090, 0.0160, 0.299
0.000010, 0.0172, 0.321
0.000015, 0.0229, 0.428
0.000020, 0.0282, 0.527
0.000030, 0.0388, 0.725
0.000040, 0.0480, 0.898
0.000050, 0.0573, 1.071
0.000060, 0.0670, 1.252
0.000070, 0.0762, 1.425
0.000080, 0.0859, 1.607
0.000090, 0.0965, 1.80
0.00010, 0.106, 1.99
0.00012, 0.126, 2.35
0.00015, 0.156, 2.92
0.00020, 0.203, 3.79
0.00025, 0.242, 4.53
0.00030, 0.273, 5.11
0.00035, 0.300, 5.60
0.00040, 0.322, 6.01
0.00050, 0.352, 6.59
0.00060, 0.374, 7.00
0.00070, 0.390, 7.29
0.00080, 0.403, 7.54
0.0010, 0.419, 7.83
0.0015, 0.442, 8.27
0.0020, 0.456, 8.54
0.0030, 0.476, 8.90
0.0040, 0.486, 9.09
0.0050, 0.493, 9.23
0.0070, 0.505, 9.44
0.0080, 0.509, 9.52
0.010, 0.516, 9.66
0.020, 0.540, 10.09
0.025, 0.547, 10.23
0.030, 0.552, 10.33
0.040, 0.562, 10.50
0.050, 0.570, 10.65
0.070, 0.584, 10.93
0.080, 0.591, 11.05
0.10, 0.604, 11.30
0.15, 0.643, 12.03
0.20, 0.692, 12.94
0.25, 0.758, 14.17
0.30, 0.837, 15.65
0.35, 0.921, 17.2
0.40, 1.000, 18.7
0.45, 1.062, 19.9
0.50, 1.123, 21.0
0.55, 1.185, 22.2
0.60, 1.256, 23.5
0.65, 1.339, 25.0
0.70, 1.449, 27.1
0.75, 1.577, 29.5
0.80, 1.753, 32.8
0.82, 1.841, 34.4
0.85, 1.996, 37.3

File: Graphitized_carbon_black_sample_GCB-I_N2_87K_convert_data.txt
# Graphitized carbon black (GCB-I), N2, 87.3 K, data
# K. Nakai et al., DOI:10.1016/j.jcis.2011.10.061
# V(alpha-s=1) = V(P/P0=0.4) = V0.4 = 21.1 [cm3(STP)/g], V(theta=1)=12.2 [cm3(STP)/g], S(BET) = 54.2 [m2/g]
# S(alpha-s)[m2/g] = slope[cm3(STP)/g] * 54.2/21.1 = slope[cm3(STP)/g] * 2.56872
# n/(molecules/nm2) = 0.602 * Gamma/(micro mol/m2)
# P/P0, alpha-s, Gamma(micro mol/m2), Gamma(N2/nm2)
0.00000040, 0.00111, 0.0193, 0.0116
0.00000060, 0.00144, 0.0251, 0.0151
0.0000010, 0.00205, 0.0356, 0.0214
0.0000015, 0.00264, 0.0459, 0.0276
0.0000020, 0.00319, 0.0553, 0.0333
0.0000025, 0.00365, 0.0633, 0.0381
0.0000030, 0.00410, 0.0712, 0.0428
0.0000035, 0.00454, 0.0788, 0.0474
0.0000040, 0.00493, 0.0857, 0.0516
0.0000050, 0.00562, 0.0977, 0.0588
0.0000060, 0.00629, 0.109, 0.0657
0.0000070, 0.00686, 0.119, 0.0717
0.0000080, 0.00742, 0.129, 0.0776
0.0000090, 0.00795, 0.138, 0.0831
0.000010, 0.00847, 0.147, 0.0886
0.000015, 0.0111, 0.192, 0.116
0.000020, 0.0137, 0.238, 0.143
0.000030, 0.0189, 0.327, 0.197
0.000040, 0.0233, 0.404, 0.243
0.000050, 0.0271, 0.470, 0.283
0.000060, 0.0308, 0.535, 0.322
0.000070, 0.0341, 0.593, 0.357
0.000080, 0.0379, 0.569, 0.397
0.000090, 0.0422, 0.732, 0.441
0.00010, 0.0464, 0.806, 0.485
0.00012, 0.0554, 0.963, 0.580
0.00015, 0.0682, 1.19, 0.714
0.00020, 0.0919, 1.60, 0.961
0.00025, 0.113, 1.97
0.00030, 0.135, 2.34, 1.41
0.00035, 0.156, 2.70, 1.63
0.00040, 0.176, 3.05, 1.84
0.00050, 0.212, 3.68, 2.21
0.00060, 0.244, 4.23, 2.55
0.00070, 0.271, 4.70, 2.83
0.00080, 0.294, 5.11, 3.08
0.0010, 0.333, 5.78, 3.48
0.0015, 0.385, 6.68, 4.02
0.0020, 0.416, 7.23, 4.35
0.0030, 0.449, 7.80, 4.69
0.0040, 0.468, 8.14, 4.90
0.0050, 0.481, 8.36, 5.03
0.0070, 0.500, 8.69, 5.23
0.0080, 0.506, 8.80, 5.30
0.010, 0.516, 8.97, 5.40
0.015, 0.535, 9.29, 5.59
0.020, 0.547, 9.50, 5.72
0.030, 0.564, 9.80, 5.90
0.040, 0.577, 10.0, 6.03
0.050, 0.587, 10.2, 6.12
0.070, 0.605, 10.5, 6.33
0.080, 0.614, 10.7, 6.42
0.10, 0.631, 11.0, 6.60
0.15, 0.674, 11.7, 7.05
0.20, 0.724, 12.6, 7.57
0.25, 0.781, 13.6, 8.17
0.30, 0.848, 14.7, 8.87
0.35, 0.924, 16.1, 9.66
0.40, 1.000, 17.4, 10.5

File: Non-Graphitized_carbon_black_sample_NGCB_N2_77K_convert_data.txt
# Non-Graphitized carbon black (NGCB), N2, 77.4 K
# K. Nakai et al., DOI:10.1016/j.jcis.2010.08.005
# V(alpha-s=1) = V(P/P0=0.4) = V0.4 = 6.96 [cm3(STP)/g], V(theta=1)=4.34 [cm3(STP)/g], S(BET) = 18.9 [m2/g]
# S(alpha-s)[m2/g] = slope[cm3(STP)/g] * 18.9/6.96 = slope[cm3(STP)/g] * 2.715517
# n/(molecules/nm2) = 0.602 * Gamma/(micro mol/m2)
# P/P0, alpha-s, Gamma(micro mol/m2)
0.00000005, 0.0022, 0.035
0.00000007, 0.0034, 0.057
0.00000010, 0.0050, 0.083
0.00000015, 0.0066, 0.109
0.00000020, 0.0076, 0.125
0.00000025, 0.0085, 0.140
0.0000003, 0.0093, 0.154
0.0000004, 0.0111, 0.182
0.0000005, 0.0126, 0.208
0.0000010, 0.0184, 0.303
0.0000013, 0.0210, 0.345
0.0000020, 0.0256, 0.421
0.0000030, 0.0309, 0.508
0.0000040, 0.0359, 0.591
0.0000050, 0.0402, 0.662
0.0000060, 0.0445, 0.733
0.0000080, 0.0503, 0.828
0.000010, 0.0560, 0.922
0.000013, 0.0618, 1.017
0.000020, 0.0733, 1.206
0.000030, 0.0862, 1.419
0.000040, 0.0977, 1.608
0.000060, 0.115, 1.89
0.000080, 0.129, 2.13
0.00010, 0.144, 2.36
0.00013, 0.161, 2.65
0.00020, 0.190, 3.12
0.00030, 0.223, 3.66
0.00040, 0.250, 4.11
0.00050, 0.270, 4.45
0.00060, 0.283, 4.66
0.00080, 0.309, 5.08
0.0010, 0.330, 5.44
0.0013, 0.352, 5.79
0.0020, 0.382, 6.29
0.0030, 0.409, 6.74
0.0050, 0.441, 7.26
0.0060, 0.453, 7.45
0.0080, 0.471, 7.76
0.010, 0.484, 7.97
0.013, 0.499, 8.20
0.020, 0.522, 8.58
0.030, 0.546, 8.99
0.040, 0.568, 9.34
0.050, 0.582, 9.58
0.060, 0.596, 9.81
0.080, 0.621, 10.21
0.10, 0.644, 10.59
0.12, 0.668, 10.99
0.14, 0.687, 11.30
0.16, 0.711, 11.70
0.18, 0.733, 12.06
0.20, 0.754, 12.41
0.22, 0.780, 12.84
0.24, 0.802, 13.19
0.26, 0.825, 13.57
0.28, 0.848, 13.95
0.30, 0.874, 14.38
0.32, 0.899, 14.80
0.34, 0.922, 15.18
0.36, 0.948, 15.61
0.38, 0.974, 16.03
0.40, 1.00, 16.46
0.42, 1.02, 16.8
0.44, 1.05, 17.3
0.46, 1.07, 17.7
0.48, 1.10, 18.1
0.50, 1.12, 18.5
0.52, 1.15, 18.9
0.54, 1.18, 19.4
0.56, 1.21, 19.9
0.58, 1.24, 20.4
0.60, 1.27, 20.9
0.62, 1.30, 21.4
0.64, 1.34, 22.0
0.66, 1.36, 22.5
0.68, 1.40, 23.1
0.70, 1.45, 23.9
0.72, 1.49, 24.6
0.74, 1.54, 25.3
0.76, 1.59, 26.2
0.78, 1.65, 27.2
0.80, 1.71, 28.1
0.82, 1.78, 29.3
0.84, 1.87, 30.7
0.85, 1.91, 31.4
0.86, 1.97, 32.4
0.87, 2.04, 33.6
0.88, 2.11, 34.8
0.90, 2.27, 37.4

File: Non-Graphitized_carbon_black_sample_NGCB_N2_87K_convert_data.txt
# Non-Graphitized carbon black (NGCB), N2, 87.3 K, data
# K. Nakai et al., DOI:10.1016/j.jcis.2011.10.061
# V(alpha-s=1) = V(P/P0=0.4) = V0.4 = 6.72 [cm3(STP)/g], V(theta=1)=4.21 [cm3(STP)/g], S(BET) = 18.9 [m2/g]
# S(alpha-s)[m2/g] = slope[cm3(STP)/g] * 18.9/6.72 = slope[cm3(STP)/g] * 2.8125
# n/(molecules/nm2) = 0.602 * Gamma/(micro mol/m2)
# P/P0, alpha-s, Gamma(micro mol/m2), Gamma(N2/nm2)
0.00000020, 0.00104, 0.0166, 0.0100
0.00000040, 0.00218, 0.0347, 0.0209
0.00000060, 0.00335, 0.0532, 0.0321
0.0000010, 0.00552, 0.0878, 0.0528
0.0000015, 0.00791, 0.126, 0.0758
0.0000020, 0.01000, 0.159, 0.0957
0.0000025, 0.0117, 0.186, 0.112
0.0000030, 0.0133, 0.212, 0.128
0.0000035, 0.0147, 0.234, 0.141
0.0000040, 0.0160, 0.254, 0.153
0.0000050, 0.0181, 0.289, 0.174
0.0000060, 0.0202, 0.322, 0.194
0.0000070, 0.0220, 0.350, 0.211
0.0000080, 0.0238, 0.378, 0.228
0.0000090, 0.0254, 0.405, 0.244
0.000010, 0.0269, 0.428, 0.258
0.000015, 0.0333, 0.530, 0.319
0.000020, 0.0393, 0.625, 0.376
0.000030, 0.0483, 0.769, 0.463
0.000040, 0.0562, 0.894, 0.538
0.000050, 0.0622, 0.989, 0.595
0.000060, 0.0681, 1.08, 0.652
0.000070, 0.0736, 1.17, 0.705
0.000080, 0.0788, 1.25, 0.755
0.000090, 0.0838, 1.33, 0.802
0.00010, 0.0882, 1.40, 0.844
0.00012, 0.0965, 1.54, 0.924
0.00015, 0.108, 1.72, 1.04
0.00020, 0.125, 1.99, 1.20
0.00025, 0.141, 2.24, 1.35
0.00030, 0.154, 2.45, 2.45
0.00035, 0.166, 2.64, 1.59
0.00040, 0.177, 2.81, 1.69
0.00050, 0.195, 3.10, 1.87
0.00060, 0.211, 3.36, 2.02
0.00070, 0.224, 3.57, 2.15
0.00080, 0.236, 3.76, 2.26
0.0010, 0.256, 4.07, 2.45
0.0015, 0.295, 4.69, 2.83
0.0020, 0.323, 5.13, 3.09
0.0030, 0.358, 5.70, 3.43
0.0040, 0.384, 6.10, 3.67
0.0050, 0.404, 6.43, 3.87
0.0070, 0.431, 6.86, 4.13
0.0080, 0.440, 7.00, 4.22
0.010, 0.457, 7.26, 4.37
0.015, 0.489, 7.78, 4.68
0.020, 0.509, 8.10, 4.88
0.025, 0.525, 8.34, 5.02
0.030, 0.540, 8.58, 5.17
0.040, 0.563, 8.95, 5.39
0.050, 0.581, 9.24, 5.57
0.070, 0.611, 9.72, 5.85
0.080, 0.624, 9.92, 5.97
0.10, 0.649, 10.3, 6.22
0.15, 0.707, 11.2, 6.76
0.20, 0.760, 12.1, 7.28
0.25, 0.817, 13.0, 7.82
0.30, 0.875, 13.9, 8.37
0.35, 0.936, 14.9, 8.96
0.40, 1.000, 15.9, 9.57

File: OGA_Ar_77K_reference_data.txt
# graphite (OGA), Ar, 77 K, data, t
# K. Miura et al., Adsorption (2007) 13: 139-147.: DOI 10.1007/s10450-007-9015-7
# Vm=V(theta=1) = 1.42 [cm3/g], C-value = 653, S = 5.27 [m2/g]
# V(alpha-s=1) = V(P/P0=0.4) = V0.4 = 2.761582 [cm3/g]
# S(alpha-s)[m2/g] = slope[cm3(STP)/g] * 5.27/2.761582 = slope[cm3(STP)/g] * 1.908326
# relative_pressure_X, V[cm3(STP)/g], theta, alpha-s, t[nm]
1.19E-03, 0.545, 0.3838, 0.197351, 0.1289568
4.31E-03, 1.1235, 0.7912, 0.406832, 0.2658432
1.50E-02, 1.2831, 0.9036, 0.464625, 0.3036096
2.92E-02, 1.3612, 0.9586, 0.492906, 0.3220896
4.85E-02, 1.4571, 1.0261, 0.527632, 0.3447696
7.10E-02, 1.5123, 1.065, 0.547621, 0.35784
0.1009, 1.5752, 1.1093, 0.570398, 0.3727248
0.1369, 1.6367, 1.1526, 0.592668, 0.3872736
0.1766, 1.7052, 1.2008, 0.617472, 0.4034688
0.2117, 1.7745, 1.2496, 0.642566, 0.4198656
0.2511, 1.8685, 1.3158, 0.676605, 0.4421088
0.3053, 2.0453, 1.4404, 0.740626, 0.4839744
0.3489, 2.3261, 1.6381, 0.842307, 0.5504016
0.4008, 2.7684, 1.9496, 1.00247, 0.6550656
0.4565, 3.0248, 2.1301, 1.09531, 0.7157136
0.5097, 3.2282, 2.2734, 1.16897, 0.7638624
0.5627, 3.4524, 2.4313, 1.25015, 0.8169168
0.6059, 3.7043, 2.6087, 1.34137, 0.8765232
0.6624, 4.2089, 2.964, 1.52409, 0.995904
0.7159, 4.6465, 3.2722, 1.68255, 1.09946
0.7651, 5.0907, 3.585, 1.8434, 1.20456
0.81, 5.6189, 3.957, 2.03467, 1.329552
0.848, 6.3881, 4.4987, 2.3132, 1.51156
0.8664, 7.1563, 5.0396, 2.59138, 1.69331
0.9163, 8.921, 6.2824, 3.23039, 2.11089
0.9487, 12.151, 8.557, 4.40001, 2.875152