Folder: pyGAPS-v.4.4.0-python3.7-template/convert_PP0_to_alpha-s/silica

Note: convert_PP0_to_alpha-s/silica/Nonporous_Silica_N2_77K_reference_data.txt
# Standard Adsorption Data of N2 Gas for Nonporous Silica
# M. Hakuman et al., Journal of Colloid and Interface Science 241, 127-141 (2001).: doi:10.1006/jcis.2001.7715
# Point N, Pi(kPa) (initial), Pe (kPa) (equilibrium), P0 (kPa), Pe/P0, V(cm3(STP)/g)
1, 2.757, 0.003, 101.98, 0.00003, 0.273
2, 6.063, 0.472, 101.88, 0.00463, 0.789
3, 7.545, 2.669, 101.42, 0.02632, 1.091
4, 6.835, 4.361, 101.33, 0.04304, 1.197
5, 4.733, 4.518, 101.29, 0.04461, 1.205
6, 6.458, 5.351, 101.16, 0.05290, 1.246
7, 9.816, 7.353, 101.26, 0.07261, 1.325
8, 7.350, 7.353, 100.93, 0.07285, 1.324
9, 8.743, 7.949, 101.00, 0.07870, 1.354
10, 10.07, 8.928, 101.23, 0.08820, 1.386
11, 11.41, 10.08, 101.29, 0.09954, 1.423
12, 12.33, 11.14, 101.55, 0.1097, 1.452
13, 17.54, 14.06, 101.46, 0.1386, 1.556
14, 23.04, 18.39, 101.78, 0.1807, 1.660
15, 28.38, 23.21, 101.81, 0.2279, 1.774
16, 33.75, 28.32, 101.88, 0.2780, 1.890
17, 38.90, 33.43, 102.01, 0.3277, 2.010
18, 47.10, 40.07, 101.68, 0.3941, 2.157
19, 55.01, 47.16, 101.72, 0.4637, 2.348
20, 63.31, 54.78, 101.65, 0.5389, 2.564
21, 70.83, 62.20, 102.04, 0.6096, 2.805
22, 78.93, 69.91, 101.91, 0.6860, 3.061
23, 87.13, 77.21, 101.94, 0.7573, 3.442
24, 92.50, 83.33, 101.81, 0.8184, 3.846
25, 100.61, 89.22, 101.98, 0.8749, 4.489
26, 105.59, 93.48, 101.72, 0.9190, 5.338
27, 107.93, 95.79, 101.65, 0.9424, 6.351
28, 107.35, 97.29, 101.68, 0.9568, 7.226
29, 106.66, 98.01, 101.72, 0.9635, 8.026
30, 106.86, 98.56, 101.91, 0.9671, 8.804
31, 106.99, 99.21, 102.24, 0.9704, 9.522
32, 106.86, 99.27, 101.72, 0.9760, 10.27
33, 107.22, 99.41, 101.52, 0.9792, 11.03
34, 109.07, 99.86, 102.04, 0.9786, 11.91
35, 106.92, 100.15, 101.98, 0.9821, 12.56
36, 106.96, 100.32, 102.11, 0.9825, 13.20
37, 106.96, 100.54, 102.20, 0.9838, 13.82
38, 106.79, 100.61, 102.27, 0.9838, 14.43
39, 106.79, 100.61, 102.07, 0.9857, 15.04
40, 106.89, 100.77, 102.20, 0.9860, 15.64
41, 106.89, 100.74, 102.07, 0.9869, 16.25
42, 106.79, 100.80, 102.14, 0.9869, 16.84
43, 107.87, 100.90, 102.11, 0.9882, 17.52
44, 106.79, 101.00, 102.43, 0.9860, 18.09
45, 107.22, 101.07, 102.37, 0.9873, 18.70
46, 106.76, 101.10, 102.30, 0.9882, 19.26
47, 107.28, 101.19, 102.37, 0.9886, 19.85
48, 106.83, 101.13, 102.20, 0.9895, 20.42
49, 108.55, 101.13, 102.04, 0.9911, 21.16

Note: README.md
# pyGAPS-v.4.4.0-python3.7-template

File: LiChrospher_Si-1000_Silica_N2_77K_convert_data.txt
# Standard Reduced Nitrogen Adsorption Isotherm Data for LiChrospher Si-1000 Silica
# The adsorbed amounts can be obtained by multiplying the alpha-s data by 9.12 cm3(STP)/g.
# The statistical film thickness curve can be obtained by multiplying the alpha-s data by 0.722 nm.
# SBET for Lichrospher Si-1000 assumed different values in different relative pressure intervals
# (the latter are provided in parentheses): 26.2 [m2/g] (0.06-0.25), 25.1 [m2/g] (0.01-0.1), 21.4 [m2/g] (0.003-0.03), and 18.1 [m2/g] (0.001-0.01).
# t = alpha-s * 0.722 [nm]
# V(alpha-s=1) = V(P/P0=0.4) = V0.4 = 1 * 9.12 [cm3(STP)/g], S(BET) = 26.2 [m2/g] (P/P0=0.06-0.25)
# S(alpha-s)[m2/g] = slope[cm3(STP)/g] * 26.2/9.12 = slope[cm3(STP)/g] * 2.872807
# Data in parentheses were obtained using the nitrogen adsorption isotherm for LiChrospher Si-4000 silica.
# P/P0, alpha-s
5.55E-07, 0.012
1.23E-06, 0.023
2.38E-06, 0.034
4.18E-06, 0.046
6.74E-06, 0.057
1.02E-05, 0.068
1.49E-05, 0.080
2.10E-05, 0.091
2.89E-05, 0.102
3.89E-05, 0.114
5.14E-05, 0.125
6.69E-05, 0.136
8.64E-05, 0.147
1.11E-04, 0.159
1.40E-04, 0.170
1.78E-04, 0.181
2.22E-04, 0.192
2.74E-04, 0.203
3.37E-04, 0.214
4.12E-04, 0.225
4.99E-04, 0.235
6.02E-04, 0.246
7.20E-04, 0.256
8.55E-04, 0.266
1.01E-03, 0.275
1.18E-03, 0.284
1.38E-03, 0.294
1.59E-03, 0.302
1.82E-03, 0.311
2.08E-03, 0.319
2.36E-03, 0.327
2.66E-03, 0.335
3.02E-03, 0.344
3.41E-03, 0.352
3.82E-03, 0.36
4.27E-03, 0.367
4.74E-03, 0.374
5.23E-03, 0.382
5.75E-03, 0.388
6.29E-03, 0.395
7.09E-03, 0.404
7.63E-03, 0.41
8.40E-03, 0.418
9.20E-03, 0.425
0.0100, 0.432
0.0113, 0.441
0.0125, 0.450
0.0150, 0.465
0.0175, 0.479
0.0200, 0.490
0.0250, 0.510
0.0300, 0.528
0.0350, 0.544
0.0400, 0.558
0.0500, 0.583
0.0600, 0.605
0.0700, 0.624
0.0800, 0.642
0.0900, 0.658
0.100, 0.673
0.120, 0.701
0.140, 0.726
0.160, 0.751
0.180, 0.774
0.200, 0.795
0.225, 0.822
0.250, 0.848
0.275, 0.873
0.300, 0.898
0.325, 0.924
0.350, 0.949
0.375, 0.974
0.400, 1.000
0.425, 1.026
0.450, 1.053
0.475, 1.081
0.500, 1.109
0.550, 1.170
0.575, 1.201
0.600, 1.233
0.625, 1.268
0.650, 1.305
0.675, 1.344
0.700, 1.385
0.725, 1.430
0.750, 1.478
0.775, 1.531
0.800, 1.590
0.820, 1.642
0.840, 1.700
0.860, 1.765
0.880, 1.839
0.900, 1.925
0.910, 1.974
0.920, 2.030
0.930, 2.089
0.940, 2.163
0.950, 2.246
0.960, 2.330
0.970, 2.515
0.980, 2.80
0.988, 3.16
,

File: Nonporous_Silica_N2_77K_convert_data.txt
# Standard alpha-s Data of N2 Gas for Nonporous Silica
# M. Hakuman et al., Journal of Colloid and Interface Science 241, 127-141 (2001).: doi:10.1006/jcis.2001.7715
# Vtest(alpha-s=1) is the adsorbed amount [cm3(STP)/g] at P/P0 = 0.4 for the test adsorbent.
# From our data (SBET(std) = 6.20 m2/g, and Vstd(alpha-s=1) = 2.15 cm3(STP)/g)
# S(alpha-s) [m2/g] = slope [cm3(STP)/g] * 6.20/2.15 = slope [cm3(STP)/g] * 2.88
# P/P0, alpha-s
0.01, 0.44
0.02, 0.48
0.03, 0.52
0.04, 0.55
0.05, 0.57
0.06, 0.6
0.07, 0.61
0.08, 0.63
0.09, 0.65
0.1, 0.67
0.11, 0.68
0.12, 0.69
0.13, 0.71
0.14, 0.72
0.15, 0.73
0.16, 0.74
0.17, 0.76
0.18, 0.77
0.19, 0.78
0.2, 0.79
0.22, 0.81
0.24, 0.83
0.26, 0.85
0.28, 0.87
0.3, 0.89
0.32, 0.92
0.34, 0.93
0.36, 0.95
0.38, 0.98
0.4, 1
0.42, 1.02
0.44, 1.05
0.46, 1.07
0.48, 1.09
0.5, 1.12
0.52, 1.14
0.54, 1.16
0.56, 1.19
0.58, 1.21
0.6, 1.24
0.62, 1.27
0.64, 1.31
0.66, 1.34
0.68, 1.38
0.7, 1.42
0.72, 1.46
0.74, 1.51
0.76, 1.56
0.78, 1.61
0.8, 1.67
0.81, 1.71
0.82, 1.75
0.83, 1.79
0.84, 1.83
0.85, 1.88
0.86, 1.93
0.87, 2
0.88, 2.07
0.89, 2.15
0.9, 2.24
0.91, 2.33
0.92, 2.44
0.93, 2.57
0.94, 2.78
0.95, 3.17
0.96, 3.58
0.97, 4.27
0.975, 4.83
0.98, 5.58
0.985, 7.07
0.99, 10.04